# epoch_start_s=1774996309
timestamp_s,accel_x,accel_y,accel_z,gyro_x,gyro_y,gyro_z,mag_x,mag_y,mag_z,wind_vane_deg
# wind_vane_deg is blank for the first 270 s, populated for the final 30 s
0.101,0.23411196,0.0785858,9.85471,-0.0016123354,0.0027253888,0.0018034298,19584.0,21244.5,23171.5,
0.217,0.23171776,0.0714032,9.861892,-0.0013458729,0.0029918552,-0.002326738,20096.0,20220.5,19587.5,
0.332,0.21495834,0.09773941,9.873863,-0.0005464852,-0.00380293668,-0.001793813,19840.0,21500.5,21891.5,
0.449,0.18622792,0.054643784,9.88344,-0.0032111108,0.00072692332,-0.0015273513,20096.0,20732.5,21123.5,
0.572,0.24368876,0.092951016,9.761335,-0.0026781856,-0.0024706236,0.0020698932,19328.0,20732.5,21635.5,
0.689,0.22214094,0.054643784,9.840344,-0.0044102072,-0.00273709,-0.001793813,19584.0,21244.5,21635.5,
0.804,0.21974674,0.0714032,9.919353,0.0019849092,0.0024589264,0.0031357436,19328.0,21756.5,21123.5,
0.920,0.21495834,0.059432188,9.811614,-0.00028002262,-0.0048687904,-0.0025932006,19328.0,20476.5,21379.5,
1.038,0.20777574,0.03309597,9.770912,0.00185167792,0.00019399822,-0.00046150108,20096.0,20732.5,20867.5,
1.162,0.21256414,0.0761916,9.940901,-0.006142199,-0.000871852064,-0.0005947314,20096.0,21244.5,21635.5,
1.278,0.20059312,0.04506698,9.873863,-0.004809886,-0.0003389269,-0.0015273513,20608.0,21244.5,21635.5,
1.393,0.18862212,0.0714032,9.845133,0.000919044,0.0041909368,-0.0011276575,20096.0,20476.5,21123.5,
1.508,0.21495834,0.059432188,9.873863,0.000785827636,-0.0022041648,-0.0021935068,19840.0,21500.5,21891.5,
1.626,0.18143952,0.06661479,9.842738,0.0017184466,0.0021924674,0.002336355,19584.0,21244.5,20867.5,
1.748,0.23171776,0.0785858,9.859498,0.0003861338,-0.000205695632,0.00047111884,19840.0,20732.5,21123.5,
1.864,0.21016994,0.0833742,9.780489,-0.0026781856,0.0045906304,-0.0036590504,19328.0,20988.5,21123.5,
1.980,0.20777574,0.08098,9.859498,-0.0010794252,0.0057897084,-0.0012608878,20352.0,20988.5,20611.5,
2.096,0.19341052,0.0714032,9.799643,-0.0005464852,0.0003272295,-0.0012608878,20352.0,21500.5,21379.5,
2.211,0.19580472,0.059432188,9.859498,-0.002811417,-0.0014047772,-0.002326738,20608.0,20732.5,21123.5,
2.333,0.22932354,0.06900899,9.864286,0.000119671224,0.0013930798,-0.0019270442,20352.0,21244.5,21123.5,
2.451,0.22214094,0.09055681,9.847527,-0.0029446482,0.0020592324,0.0015369672,20608.0,21244.5,21635.5,
2.568,0.19819892,0.08576841,9.847527,0.000119671224,0.000460457068,0.0027360496,20096.0,20732.5,21123.5,
2.687,0.22932354,0.0785858,9.830768,0.0026510656,0.0013930798,-0.0037922818,20608.0,20988.5,21123.5,
2.805,0.19341052,0.042672776,9.785277,-0.00028002262,-0.0024706236,0.0006043492,20096.0,20732.5,21635.5,
2.928,0.18622792,0.059432188,9.818796,0.0011855215,0.003791239,-0.0029928944,20352.0,20988.5,22659.5,
3.045,0.19819892,0.054643784,9.869075,-0.00094617908,-0.0059346408,-0.0008611949,19584.0,20476.5,21379.5,
3.162,0.18862212,0.042672776,9.914564,-0.0010794252,-0.0035364776,-0.00339258784,20096.0,20988.5,22403.5,
3.280,0.17186272,0.09773941,9.85471,-0.0014791042,0.0008601546,7.142406e-05,20352.0,20732.5,21891.5,
3.401,0.21256414,0.059432188,9.909776,0.0002528876,0.0013930798,0.00020465534,20352.0,20732.5,21379.5,
3.518,0.21735254,0.08816261,9.893017,-0.003344342,-0.0004721582,-0.0016605817,20352.0,20988.5,21379.5,
3.634,0.24368876,0.0833742,9.823585,0.0010522902,0.0027253888,0.00193666116,19840.0,20988.5,21379.5,
3.751,0.18862212,0.03549017,9.88344,-0.006541893,-0.0024706236,0.0011372734,19840.0,20988.5,20611.5,
3.867,0.18622792,0.0833742,9.864286,-0.0013458729,-0.0010050833,0.000337886632,20096.0,20988.5,20611.5,
3.990,0.23171776,0.0737974,9.857103,0.003317222,0.0044573956,-0.0028596632,19840.0,20220.5,20355.5,
4.105,0.19101632,0.08098,9.900199,-0.0004132688,0.0012598485,-0.00046150108,19840.0,21244.5,21635.5,
4.221,0.20538154,0.05224958,9.823585,-0.00347757336,0.00072692332,-0.004191975,20096.0,21500.5,20355.5,
4.338,0.19341052,0.040278572,9.833161,-0.00094617908,6.0766936e-05,-0.0012608878,20352.0,20732.5,20355.5,
4.456,0.22692934,0.0761916,9.857103,-0.0032111108,-0.0026038588,-0.0060572124,19840.0,21244.5,21891.5,
4.578,0.20298734,0.059432188,9.768518,-0.0012126416,-0.0014047772,0.00193666116,19584.0,20988.5,21123.5,
4.696,0.21495834,0.0714032,9.828373,-0.0005464852,-0.0011383183,-0.00046150108,19328.0,20732.5,22147.5,
4.812,0.21735254,0.0833742,9.864286,-0.002411738,-0.00180447468,-0.0001950385,19840.0,21244.5,21123.5,
4.928,0.20777574,0.06422059,9.861892,0.000919044,-0.0022041648,-0.0020602756,20352.0,21500.5,22147.5,
5.043,0.19101632,0.0714032,9.85471,-0.0025449544,-0.0015380084,-0.002326738,20096.0,20732.5,21379.5,
5.163,0.18143952,0.03549017,9.881045,-1.3560057e-05,0.0021924674,-0.0040587444,20096.0,20476.5,21123.5,
5.280,0.21735254,0.0714032,9.85471,-0.0012126416,-0.0014047772,-0.0020602756,20096.0,21244.5,22403.5,
5.395,0.21735254,0.06182639,9.85471,0.0022513718,0.000460457068,-0.0025932006,20096.0,21500.5,21379.5,
5.513,0.19341052,0.092951016,9.833161,-0.002811417,0.0011266135,-0.0024599694,19584.0,20988.5,21379.5,
5.630,0.21735254,0.054643784,9.818796,0.0003861338,0.00019399822,-0.005923982,20352.0,21244.5,21379.5,
5.752,0.20538154,0.054643784,9.782884,-1.3560057e-05,-0.0011383183,-0.000727963636,19840.0,22012.5,21891.5,
5.871,0.22692934,0.06422059,9.895411,0.000785827636,0.0033915452,-0.0009944253,20608.0,21244.5,20611.5,
5.988,0.21016994,0.08576841,9.833161,-0.0016123354,-0.0023373962,-0.002326738,19840.0,21244.5,21635.5,
6.104,0.18622792,0.0714032,9.842738,-0.00028002262,-0.000738620736,0.0030025114,19840.0,20988.5,22147.5,
6.221,0.24608296,0.06422059,9.859498,-0.00028002262,0.00179276984,-0.002726432,20096.0,21244.5,20355.5,
6.344,0.21735254,0.09055681,9.869075,0.002384603,-0.0004721582,-0.0008611949,20096.0,21756.5,20867.5,
6.459,0.17904532,0.08816261,9.849921,0.0034504532,-0.0034032464,-0.0012608878,19840.0,20732.5,21123.5,
6.575,0.22932354,0.0761916,9.895411,-0.001878798,0.0028586238,-0.0040587444,19584.0,21500.5,20099.5,
6.690,0.25087136,0.023519162,9.852315,0.0029175282,-0.0004721582,0.0011372734,19584.0,20476.5,22147.5,
6.807,0.22692934,0.08576841,9.780489,0.000119671224,-0.0019377023,0.00193666116,20352.0,20988.5,21379.5,
6.934,0.21495834,0.08576841,9.811614,0.0022513718,-0.0024706236,0.0018034298,20096.0,21500.5,21123.5,
7.051,0.19341052,0.05224958,9.873863,-0.002411738,-0.000738620736,-0.0013941191,19840.0,21244.5,21379.5,
7.168,0.20298734,0.08098,9.85471,-0.00414373,0.0019260049,0.0014037369,20096.0,21244.5,21891.5,
7.284,0.19580472,0.06182639,9.809219,-0.002811417,-0.0014047772,-0.0021935068,20352.0,21244.5,21891.5,
7.400,0.21256414,0.054643784,9.83795,-0.00028002262,0.0024589264,-0.0028596632,20352.0,21500.5,21635.5,
7.523,0.23650616,0.112104624,9.828373,-0.0017455816,-0.0006053895,-0.0029928944,19840.0,21756.5,22659.5,
7.641,0.18862212,0.06422059,9.900199,-0.00094617908,-0.005668178,-0.0008611949,20096.0,21500.5,21891.5,
7.757,0.17186272,0.04746118,9.885834,0.00185167792,0.0023256988,-0.0015273513,20096.0,21756.5,21123.5,
7.875,0.20777574,0.109710424,9.885834,-0.006541893,-0.000871852064,-0.0011276575,19840.0,21244.5,21123.5,
7.994,0.21735254,0.0833742,9.842738,0.000919044,-0.0012715459,-0.00046150108,19840.0,21500.5,20867.5,
8.115,0.21256414,0.05224958,9.828373,-0.0053428112,0.0011266135,-0.002326738,20096.0,21756.5,21379.5,
8.231,0.22692934,0.054643784,9.83795,-0.00081294776,-0.004069403,-0.004458438,19584.0,21244.5,21123.5,
8.346,0.1574975,0.0761916,9.825979,-0.00028002262,-0.0003389269,-0.0052578252,19840.0,20988.5,21891.5,
8.461,0.18383372,0.06422059,9.804431,-0.0030778944,0.0024589264,0.00020465534,20096.0,20476.5,20867.5,
8.578,0.18383372,0.06182639,9.888228,-0.0022784918,0.0008601546,-0.0016605817,19840.0,21244.5,21891.5,
8.700,0.18383372,0.04985538,9.962448,-0.0004132688,-0.0003389269,-0.0011276575,19840.0,20988.5,21891.5,
8.816,0.24608296,0.04506698,9.857103,-0.0032111108,-0.0014047772,-0.0021935068,20096.0,20732.5,21379.5,
8.932,0.23890036,0.06900899,9.871469,0.0027842968,0.0027253888,-0.004458438,19840.0,21500.5,22659.5,
9.048,0.23411196,0.0785858,9.804431,-0.0010794252,-0.000871852064,-0.0016605817,20096.0,21244.5,21635.5,
9.165,0.21495834,0.10492202,9.859498,0.0013187528,-0.004602328,-0.0015273513,19840.0,20988.5,21379.5,
9.294,0.21974674,0.04746118,9.845133,-0.0038772672,-0.00180447468,0.00047111884,20096.0,21500.5,21891.5,
9.412,0.19341052,0.08098,9.869075,-0.0037440508,-7.246435e-05,-0.0005947314,20352.0,21500.5,21891.5,
9.527,0.21016994,0.0714032,9.895411,0.003317222,0.0031250828,-0.0003282698,19840.0,21244.5,21379.5,
9.642,0.18383372,0.107316224,9.888228,0.0019849092,0.0020592324,0.000337886632,19584.0,21244.5,20867.5,
9.762,0.18862212,0.10013361,9.816402,-0.0010794252,0.0020592324,0.0018034298,19840.0,20988.5,21379.5,
9.886,0.18862212,0.08098,9.811614,-0.00067971648,0.0021924674,-0.003925513,20096.0,21244.5,21123.5,
10.001,0.17904532,0.06900899,9.76373,-0.00094617908,0.0008601546,-0.0008611949,19584.0,21244.5,22147.5,
10.116,0.21735254,0.06661479,9.821191,0.0005193651,-0.0020709336,-6.180722e-05,19840.0,20988.5,21635.5,
10.232,0.21256414,0.01633656,9.802037,-0.0004132688,-0.0019377023,-0.0011276575,20096.0,21244.5,21635.5,
10.350,0.23890036,-0.012393862,9.890622,-0.0010794252,0.0019260049,-0.0020602756,20864.0,20988.5,22659.5,
10.474,0.23650616,0.028307564,9.845133,-0.004676655,0.0035247804,-0.00339258784,20608.0,21244.5,20867.5,
10.593,0.23650616,0.0043655484,9.857103,-0.00361080468,-0.0010050833,0.00047111884,20608.0,21244.5,22147.5,
10.712,0.2676308,0.009153955,9.845133,-0.0020120292,0.00059369208,-0.0005947314,20352.0,20988.5,21891.5,
10.827,0.24129456,0.06182639,9.909776,-0.0037440508,-0.0032700152,-0.0036590504,19840.0,21756.5,22659.5,
10.943,0.1574975,0.08576841,9.816402,0.0013187528,-0.0003389269,-0.0008611949,19840.0,21500.5,21379.5,
11.064,0.22453514,0.10013361,9.770912,0.00065259636,0.0027253888,-0.0021935068,20352.0,20988.5,21635.5,
11.182,0.21974674,0.112104624,9.773307,-0.0004132688,0.001526311,-0.0005947314,19840.0,20988.5,21891.5,
11.299,0.169468492,0.112104624,9.86668,-1.3560057e-05,0.0011266135,-0.00046150108,20352.0,20988.5,21635.5,
11.419,0.17665112,0.0833742,9.873863,-0.0022784918,-0.005002022,-0.0029928944,19840.0,20476.5,21379.5,
11.535,0.1598917,0.057037988,9.840344,0.0029175282,-7.246435e-05,-0.0037922818,20096.0,20476.5,20867.5,
11.658,0.1622859,0.08098,9.821191,-0.006541893,-0.004469093,-0.0028596632,20352.0,20988.5,21635.5,
11.772,0.1574975,0.08816261,9.861892,-0.0013458729,-0.004202634,-0.006190444,20608.0,21244.5,22147.5,
11.887,0.17186272,0.08816261,9.833161,-0.0012126416,0.00072692332,0.00087081176,20352.0,20220.5,21123.5,
12.003,0.22932354,0.0761916,9.818796,0.0021181404,0.0008601546,-0.0021935068,19840.0,20732.5,21891.5,
12.118,0.25805396,0.040278572,9.825979,0.0019849092,0.0025921612,-0.0019270442,19584.0,20732.5,21891.5,
12.241,0.22453514,0.0714032,9.926536,-0.0037440508,0.0016595423,0.00047111884,20352.0,20988.5,21379.5,
12.357,0.21495834,0.06422059,9.88344,-0.0030778944,0.0009933859,-0.00046150108,19840.0,20732.5,22659.5,
12.473,0.24129456,0.03549017,9.849921,0.0011855215,0.0025921612,0.0015369672,20608.0,20988.5,21635.5,
12.590,0.24368876,0.025913366,9.845133,-0.0005464852,-7.246435e-05,0.0018034298,19840.0,20732.5,21635.5,
12.706,0.1479207,0.0737974,9.778095,-0.0010794252,0.0013930798,-0.0028596632,20096.0,21244.5,21123.5,
12.827,0.13594967,0.054643784,9.787672,-0.0032111108,-0.0006053895,-0.0016605817,20352.0,20220.5,21379.5,
12.944,0.21256414,0.054643784,9.888228,-0.006675124,0.0013930798,-0.004191975,19328.0,19964.5,22147.5,
13.060,0.13834387,0.054643784,9.830768,0.0026510656,0.0045906304,-0.0021935068,19840.0,20220.5,22147.5,
13.177,0.17904532,0.095345216,9.852315,-0.002411738,-0.0010050833,0.0011372734,19840.0,20476.5,21635.5,
13.294,0.20538154,0.05224958,9.833161,0.00185167792,0.0023256988,7.142406e-05,20096.0,20220.5,21891.5,
13.417,0.24129456,0.12646984,9.852315,-0.00720804936,-0.0026038588,0.00047111884,19584.0,20732.5,21123.5,
13.535,0.25805396,0.109710424,9.804431,0.0013187528,0.0003272295,-0.0013941191,19840.0,19964.5,20867.5,
13.653,0.27481338,0.06182639,9.869075,-0.00067971648,0.0012598485,-0.004191975,19584.0,20732.5,20611.5,
13.769,0.23411196,0.05224958,9.909776,-0.001878798,0.0013930798,0.003801899,19584.0,20476.5,21123.5,
13.884,0.19341052,0.0785858,9.924141,0.000119671224,-0.000738620736,0.001004043,19584.0,20220.5,21635.5,
14.007,0.1551033,0.057037988,9.857103,-0.0026781856,-0.0003389269,-0.003259357,20864.0,21244.5,21379.5,
14.123,0.19101632,0.0785858,9.811614,0.0026510656,-0.0028703212,-0.0016605817,19840.0,20732.5,21635.5,
14.239,0.1527091,0.05224958,9.893017,0.00371691568,-0.0006053895,0.00047111884,20352.0,20476.5,21635.5,
14.356,0.18143952,0.01633656,9.71824,0.0017184466,-0.0063343348,-0.003925513,20608.0,20476.5,22147.5,
14.471,0.20298734,0.054643784,9.828373,0.0015852153,-0.000738620736,0.000337886632,20096.0,20476.5,22659.5,
14.597,0.1503149,0.03309597,9.972025,0.0010522902,-0.0024706236,-0.0021935068,19584.0,20476.5,20355.5,
14.713,0.24129456,0.09055681,9.818796,0.0005193651,0.0013930798,-0.0003282698,20096.0,20988.5,22147.5,
14.829,0.21256414,0.04746118,9.797249,0.0022513718,-0.0030035526,-0.0003282698,19840.0,20732.5,20611.5,
14.946,0.21974674,0.05224958,9.806826,-0.002811417,0.0011266135,-0.0025932006,19840.0,20732.5,21635.5,
15.062,0.21495834,0.023519162,9.852315,-0.0020120292,0.00059369208,-0.0009944253,20096.0,21244.5,21123.5,
15.185,0.22453514,0.01873076,9.818796,-0.001878798,-0.00313678,-0.0021935068,19584.0,20220.5,21379.5,
15.299,0.19580472,0.04506698,9.845133,-0.00094617908,6.0766936e-05,-0.0024599694,19840.0,21244.5,21635.5,
15.416,0.25087136,0.025913366,9.869075,-0.0005464852,0.0011266135,0.0011372734,20352.0,20220.5,21379.5,
15.533,0.19580472,0.011548154,9.878652,-0.002411738,0.000460457068,-0.002326738,20096.0,20476.5,20867.5,
15.656,0.18622792,0.092951016,9.790066,0.001451984,-0.0010050833,-0.00046150108,19840.0,20476.5,19587.5,
15.772,0.23890036,0.08576841,9.888228,-0.0004132688,-0.0004721582,-0.0003282698,20352.0,20732.5,20867.5,
15.887,0.20777574,0.04985538,9.878652,-0.0030778944,0.0035247804,-0.0013941191,19840.0,20988.5,20611.5,
16.006,0.1598917,0.09055681,9.890622,0.0005193651,-0.0004721582,-0.004191975,20096.0,20476.5,20611.5,
16.120,0.12876708,0.08098,9.83795,-0.001878798,0.0027253888,-0.005657519,19840.0,20476.5,20355.5,
16.240,0.18143952,0.059432188,9.857103,0.00624831,-0.00180447468,-0.001793813,19840.0,20732.5,21379.5,
16.356,0.24847716,0.05224958,9.888228,-0.00014679134,-0.0020709336,0.0016701994,20096.0,20988.5,20355.5,
16.473,0.22214094,0.0714032,9.811614,-0.006142199,0.0029918552,0.0024695872,19840.0,20476.5,21379.5,
16.588,0.22453514,0.042672776,9.847527,0.000919044,-0.0043358652,7.142406e-05,19584.0,20476.5,20099.5,
16.703,0.21735254,0.040278572,9.881045,-0.0004132688,-0.00180447468,-0.001793813,19840.0,20476.5,21635.5,
16.826,0.21016994,0.06422059,9.885834,-0.00067971648,-0.0063343348,-0.0012608878,19840.0,21244.5,21379.5,
16.943,0.17665112,0.05224958,9.952871,0.0015852153,-0.000871852064,-0.0011276575,20096.0,20988.5,20355.5,
17.061,0.13355547,0.10492202,9.859498,-0.0030778944,-0.0043358652,-0.0025932006,20352.0,20988.5,21123.5,
17.179,0.18383372,0.10013361,9.869075,0.0019849092,-0.0003389269,-0.0013941191,19328.0,20476.5,21891.5,
17.296,0.18862212,0.13844084,9.797249,0.002384603,0.0016595423,-0.001793813,19584.0,20732.5,21891.5,
17.418,0.1598917,0.11689302,9.919353,-0.0020120292,0.0035247804,0.00087081176,19840.0,20988.5,20867.5,
17.537,0.24847716,0.0737974,9.86668,-0.0029446482,0.0019260049,-0.0063236756,20352.0,20988.5,21891.5,
17.654,0.19819892,0.095345216,9.885834,0.0002528876,-0.003669709,0.00020465534,19584.0,21500.5,21891.5,
17.770,0.17425692,0.054643784,9.816402,-0.0012126416,-0.0011383183,0.0015369672,20096.0,20988.5,21891.5,
17.887,0.1407381,0.09055681,9.88344,-0.0017455816,-0.0011383183,-0.0024599694,20352.0,21244.5,21635.5,
18.009,0.1503149,0.08098,9.852315,-0.002411738,0.0020592324,-0.002326738,20096.0,21500.5,21379.5,
18.123,0.17425692,0.0833742,9.785277,0.0030507594,0.0020592324,-0.0009944253,19840.0,20476.5,21635.5,
18.239,0.17186272,0.037884372,9.86668,-0.0037440508,-0.0015380084,-0.0043252064,20096.0,21244.5,22403.5,
18.355,0.21495834,0.10492202,9.818796,-0.00067971648,-0.0022041648,-0.001793813,20096.0,20732.5,21379.5,
18.472,0.20298734,0.05224958,9.816402,-0.00067971648,-0.0004721582,0.0015369672,20352.0,21244.5,21379.5,
18.594,0.21016994,0.10013361,9.85471,0.0027842968,0.00019399822,0.0015369672,19840.0,20732.5,20867.5,
18.711,0.169468492,0.037884372,9.790066,-0.00014679134,-0.000871852064,-0.0012608878,20352.0,20988.5,20867.5,
18.831,0.21256414,0.040278572,9.833161,-0.0029446482,0.0028586238,-0.0012608878,19840.0,21500.5,21379.5,
18.949,0.20538154,0.12886404,9.730211,0.0013187528,-0.0004721582,-6.180722e-05,19840.0,20988.5,20867.5,
19.066,0.18862212,0.0714032,10.0630048,-0.00028002262,-0.0015380084,-0.0013941191,20096.0,21500.5,21379.5,
19.190,0.1551033,0.08576841,9.830768,0.0030507594,0.0019260049,-0.004191975,20608.0,20988.5,21635.5,
19.307,0.121584472,0.04506698,9.818796,-0.0014791042,-0.0032700152,0.0011372734,19840.0,20988.5,21379.5,
19.425,0.27720758,0.013942353,9.878652,0.0003861338,0.0025921612,-0.0037922818,19584.0,20988.5,21123.5,
19.544,0.27241918,0.030701768,9.833161,-0.001878798,-0.0003389269,0.0006043492,20352.0,21500.5,21123.5,
19.659,0.22932354,0.030701768,9.857103,-0.00028002262,-7.246435e-05,-0.0009944253,20352.0,20988.5,20611.5,
19.781,0.20777574,0.0714032,9.840344,-0.002411738,-0.005002022,-0.0005947314,20096.0,20988.5,22147.5,
19.895,0.23890036,0.107316224,9.823585,-0.0013458729,-0.000871852064,0.003268974,19840.0,21756.5,21635.5,
20.014,0.1598917,0.0761916,9.859498,-0.0029446482,-0.0003389269,-0.001793813,19840.0,21500.5,21635.5,
20.128,0.1598917,0.08816261,9.869075,-0.0013458729,0.0013930798,-0.004458438,20352.0,21500.5,21123.5,
20.244,0.23890036,0.09773941,9.816402,-0.00361080468,-0.0003389269,-0.0015273513,19840.0,21500.5,20611.5,
20.367,0.19341052,0.0211249584,9.802037,-0.004276961,6.0766936e-05,-0.000727963636,20096.0,21500.5,20867.5,
20.486,0.19101632,0.08576841,9.797249,-0.0038772672,-0.0010050833,-0.002726432,20096.0,21756.5,21123.5,
20.602,0.1407381,0.059432188,9.823585,-0.0005464852,-0.0003389269,-0.0013941191,20096.0,21500.5,19843.5,
20.724,0.20538154,0.08576841,9.802037,0.003317222,0.0028586238,-0.005657519,20096.0,22012.5,20867.5,
20.840,0.18383372,0.06422059,9.888228,-0.0010794252,0.0025921612,-0.0020602756,19584.0,21500.5,20867.5,
20.962,0.22214094,0.12168144,9.983996,0.0041166096,0.005123552,0.000337886632,19840.0,21244.5,19843.5,
21.080,0.22214094,0.0714032,9.881045,-0.004676655,0.0013930798,-0.001793813,19840.0,21756.5,20099.5,
21.195,0.1622859,0.09055681,9.701481,-0.0029446482,-0.00380293668,-0.0015273513,20096.0,21244.5,19843.5,
21.312,0.20298734,0.05224958,9.780489,-0.006541893,0.0033915452,-0.002726432,19328.0,21244.5,20355.5,
21.427,0.22453514,0.009153955,9.852315,-0.0012126416,-0.0006053895,-0.0040587444,19840.0,20732.5,20611.5,
21.549,0.25326556,0.0714032,9.754153,0.0029175282,-0.0020709336,-0.002326738,20096.0,20220.5,20355.5,
21.665,0.19580472,0.06422059,9.79246,-0.004276961,0.0011266135,-0.0005947314,20096.0,21244.5,20611.5,
21.780,0.21735254,0.03549017,9.816402,-0.00028002262,-0.0026038588,-0.002326738,19584.0,21244.5,19843.5,
21.896,0.2676308,0.05224958,9.888228,-0.00014679134,0.00019399822,-0.004458438,20096.0,21244.5,19587.5,
22.012,0.25565976,0.107316224,9.86668,0.00065259636,-0.00380293668,-0.0015273513,19840.0,20988.5,21123.5,
22.137,0.1598917,0.05224958,9.775701,-0.0010794252,0.0012598485,-0.0035258192,19584.0,21244.5,21379.5,
22.253,0.1622859,0.06661479,9.849921,0.00185167792,0.00179276984,0.0006043492,19840.0,21244.5,21379.5,
22.371,0.20538154,0.095345216,9.823585,-0.001878798,0.0020592324,7.142406e-05,20096.0,20988.5,19843.5,
22.487,0.22214094,0.0737974,9.885834,-0.003344342,0.0024589264,-0.0011276575,20096.0,21244.5,21891.5,
22.603,0.18862212,0.05224958,9.828373,-0.00067971648,-0.00180447468,-0.0016605817,19840.0,20988.5,22147.5,
22.727,0.19819892,0.13125824,9.845133,-0.004276961,0.00072692332,-0.0005947314,19840.0,21500.5,21635.5,
22.843,0.18143952,0.06422059,9.773307,0.000119671224,0.0040577016,-0.00046150108,20608.0,21500.5,21379.5,
22.961,0.21016994,0.04506698,9.799643,-0.00347757336,-0.0016712397,-0.0005947314,20352.0,21500.5,20355.5,
23.078,0.19580472,0.040278572,9.895411,-0.0038772672,0.0019260049,0.00073758052,19840.0,21244.5,20611.5,
23.203,0.24847716,0.06661479,9.859498,-0.0012126416,6.0766936e-05,-0.001793813,19840.0,20988.5,20355.5,
23.319,0.20059312,0.04746118,9.849921,0.0003861338,-0.0010050833,-0.0008611949,19584.0,20988.5,19587.5,
23.435,0.22692934,0.095345216,9.816402,-0.0025449544,-0.0039361716,-0.0005947314,19584.0,20732.5,20611.5,
23.551,0.23650616,0.05224958,9.780489,-0.00067971648,-0.0039361716,-0.0001950385,19840.0,21244.5,20867.5,
23.667,0.20059312,0.095345216,9.799643,-0.00520958,-0.0032700152,-0.0009944253,19584.0,20988.5,20867.5,
23.789,0.20059312,0.059432188,9.852315,-0.0021452606,-0.0016712397,-0.002326738,19328.0,20732.5,20867.5,
23.906,0.1479207,0.06182639,9.881045,0.00065259636,0.003924474,0.00073758052,19840.0,21500.5,21123.5,
24.021,0.17665112,0.0737974,9.85471,-0.0004132688,-0.0026038588,0.00193666116,19328.0,20476.5,20355.5,
24.137,0.17904532,0.06900899,9.852315,-0.0062754304,-0.004602328,-0.000727963636,20096.0,21756.5,20867.5,
24.254,0.20059312,0.059432188,9.811614,-0.0025449544,-0.000871852064,0.000337886632,20096.0,21756.5,21379.5,
24.379,0.23890036,0.059432188,9.806826,0.0010522902,0.0012598485,-0.004458438,19840.0,21244.5,20099.5,
24.496,0.23171776,0.0785858,9.842738,-0.001878798,-0.0035364776,-0.0019270442,20352.0,21500.5,20867.5,
24.611,0.17425692,0.059432188,9.895411,-0.0026781856,-0.0014047772,-0.0024599694,19584.0,20988.5,21123.5,
24.729,0.21735254,0.054643784,9.881045,-0.0017455816,-0.0006053895,-0.0020602756,19584.0,21244.5,20355.5,
24.846,0.20298734,0.06422059,9.919353,0.000119671224,0.0009933859,-0.0057907504,20096.0,21244.5,20611.5,
24.969,0.18143952,0.013942353,9.893017,-0.0022784918,-0.0003389269,-0.0008611949,19584.0,21244.5,20099.5,
25.086,0.13594967,0.057037988,9.811614,-0.0012126416,-0.0010050833,0.0012705056,20096.0,20988.5,21379.5,
25.204,0.19580472,0.01633656,9.864286,-0.0020120292,-7.246435e-05,0.0006043492,19840.0,21244.5,20355.5,
25.319,0.1503149,0.0761916,9.809219,-0.004676655,-0.0006053895,-0.004458438,19840.0,20732.5,20099.5,
25.433,0.2652366,0.10492202,9.964843,-0.0016123354,-0.0016712397,-0.000727963636,20096.0,20732.5,21123.5,
25.556,0.23171776,0.10252782,9.871469,-0.00067971648,0.00179276984,-0.0016605817,19328.0,21500.5,21891.5,
25.675,0.21256414,0.095345216,9.842738,0.0003861338,0.0016595423,-0.0016605817,20096.0,20732.5,21123.5,
25.792,0.17186272,0.092951016,9.833161,0.0029175282,-0.0004721582,-0.0013941191,19584.0,21244.5,20867.5,
25.909,0.1431323,0.06661479,9.859498,-0.00014679134,0.001526311,0.0020698932,19840.0,20220.5,21123.5,
26.024,0.13834387,0.092951016,9.921747,-0.0013458729,0.0013930798,-0.004191975,19584.0,20220.5,21635.5,
26.147,0.18622792,0.04746118,9.86668,-0.0044102072,0.0013930798,-0.0013941191,20096.0,20988.5,22403.5,
26.263,0.20777574,0.0714032,9.857103,-0.004809886,0.005256787,-0.0021935068,19840.0,21244.5,20867.5,
26.377,0.23411196,0.01873076,9.878652,0.0031839908,0.0012598485,-0.0021935068,19840.0,20988.5,21635.5,
26.494,0.21495834,0.04506698,9.787672,-0.0017455816,-0.0010050833,-0.0015273513,20096.0,21244.5,21379.5,
26.611,0.22692934,0.06661479,9.835556,0.001451984,6.0766936e-05,-0.0028596632,20352.0,20220.5,21123.5,
26.732,0.25326556,0.06182639,9.833161,-0.0032111108,-0.00380293668,-0.0028596632,20096.0,20988.5,21379.5,
26.849,0.19341052,0.025913366,9.871469,-0.0026781856,-0.000738620736,-0.0009944253,19840.0,20732.5,21379.5,
26.967,0.18143952,0.0785858,9.857103,0.0029175282,0.000460457068,-0.00046150108,19840.0,20732.5,20355.5,
27.084,0.18383372,0.092951016,9.878652,-0.0064086468,0.0020592324,0.0016701994,19840.0,21500.5,21635.5,
27.201,0.19101632,0.08816261,9.857103,-0.0030778944,0.0028586238,-0.0052578252,20608.0,21500.5,21379.5,
27.323,0.17904532,0.08098,9.830768,-0.007474512,0.0003272295,-0.0009944253,19840.0,20988.5,20867.5,
27.437,0.20298734,0.06900899,9.859498,0.0029175282,-7.246435e-05,-0.0036590504,19840.0,20988.5,20355.5,
27.554,0.22214094,0.0737974,9.794854,-0.004809886,-0.004469093,-0.0031261258,19584.0,21244.5,20867.5,
27.669,0.21016994,0.114498824,9.861892,-0.002411738,-0.0030035526,0.0011372734,19328.0,21500.5,22147.5,
27.787,0.18862212,0.054643784,9.823585,-0.0014791042,-0.0010050833,0.00020465534,19584.0,20988.5,21123.5,
27.911,0.21016994,0.04506698,9.85471,-0.0037440508,0.0021924674,-0.0009944253,20096.0,21244.5,20867.5,
28.027,0.17425692,0.0833742,9.861892,-1.3560057e-05,-0.0015380084,-0.000727963636,19840.0,20988.5,20867.5,
28.144,0.1479207,0.01873076,9.881045,-0.00067971648,-0.0020709336,0.0014037369,19840.0,21244.5,21379.5,
28.260,0.18862212,0.06900899,9.840344,-0.004676655,0.001526311,-0.0008611949,19584.0,20988.5,21891.5,
28.375,0.20298734,0.0019713492,9.878652,-0.0021452606,0.000460457068,-0.0016605817,19584.0,20988.5,21123.5,
28.500,0.19341052,0.06182639,9.916959,-0.0038772672,0.0009933859,0.00020465534,19328.0,21244.5,21123.5,
28.616,0.18622792,0.09773941,9.900199,0.0005193651,0.0003272295,-0.00046150108,19328.0,20476.5,21123.5,
28.732,0.2652366,0.112104624,9.852315,-0.0005464852,0.0029918552,-0.0036590504,19840.0,21244.5,22147.5,
28.849,0.22692934,0.09055681,9.782884,0.000119671224,-0.0015380084,-0.002726432,19328.0,21244.5,21123.5,
28.966,0.19819892,0.06422059,9.811614,0.0053156764,0.0016595423,-0.0005947314,19840.0,21244.5,21891.5,
29.088,0.19341052,0.092951016,9.847527,0.0015852153,-0.0019377023,-0.0009944253,19328.0,20988.5,21379.5,
29.206,0.21256414,0.09055681,9.871469,0.0030507594,0.00179276984,-0.0024599694,19328.0,20476.5,20867.5,
29.324,0.19341052,0.092951016,9.852315,-0.002411738,6.0766936e-05,-0.003259357,19328.0,20988.5,21379.5,
29.440,0.19101632,0.0785858,9.804431,0.002384603,-0.0004721582,-0.0031261258,19584.0,20732.5,22147.5,
29.561,0.24608296,0.08098,9.756547,0.0027842968,0.0032583176,-0.0008611949,19328.0,20476.5,22147.5,
29.676,0.20298734,0.0737974,9.869075,-0.0054760424,0.0043241644,0.00020465534,19584.0,20220.5,21891.5,
29.793,0.17425692,0.09055681,9.873863,-0.0026781856,0.001526311,0.00366866784,19584.0,20988.5,21635.5,
29.910,0.25087136,0.057037988,9.775701,-0.00014679134,-0.0020709336,-0.00046150108,19328.0,20732.5,21379.5,
30.028,0.1670743,0.06661479,9.818796,0.004782766,0.00179276984,0.002336355,19584.0,20988.5,21379.5,
30.149,0.22692934,0.042672776,9.814008,-0.00014679134,6.0766936e-05,0.0015369672,19840.0,21244.5,22659.5,
30.267,0.18862212,0.06661479,9.91217,-0.00014679134,0.0019260049,0.000337886632,19840.0,20988.5,22147.5,
30.386,0.18622792,0.092951016,9.852315,-0.0017455816,-7.246435e-05,-0.0003282698,19584.0,20732.5,21635.5,
30.502,0.21256414,0.057037988,9.811614,0.003317222,-0.000871852064,-0.0053910568,19584.0,20476.5,22403.5,
30.619,0.21974674,0.10013361,9.816402,-0.0010794252,-0.0003389269,-0.0028596632,19328.0,20732.5,22915.5,
30.742,0.20059312,0.06422059,9.821191,-0.00347757336,-0.000738620736,0.00020465534,19840.0,20732.5,21891.5,
30.861,0.21735254,0.040278572,9.907382,-0.00014679134,0.0020592324,-0.002326738,19328.0,20988.5,22403.5,
30.978,0.21016994,0.0785858,9.790066,-0.00014679134,0.0020592324,-0.0021935068,19584.0,21244.5,20355.5,
31.094,0.20298734,0.09055681,9.869075,-0.00414373,-0.0003389269,0.00087081176,19072.0,20988.5,21379.5,
31.209,0.19341052,0.08098,9.878652,-0.0005464852,-0.0020709336,-0.0008611949,19328.0,21244.5,21891.5,
31.330,0.24129456,0.10013361,9.785277,-0.0010794252,0.0033915452,-0.0031261258,19584.0,21244.5,22659.5,
31.447,0.19580472,0.03549017,9.833161,-0.0004132688,-0.0014047772,-0.0013941191,19840.0,21244.5,20867.5,
31.563,0.19819892,0.01873076,9.823585,-0.00347757336,-0.000738620736,0.001004043,19072.0,21244.5,21891.5,
31.681,0.17425692,0.08576841,9.842738,0.0003861338,-0.0019377023,-0.000727963636,19072.0,21244.5,21379.5,
31.800,0.24129456,0.06422059,9.833161,0.000919044,0.0028586238,-6.180722e-05,19328.0,21500.5,21379.5,
31.921,0.24608296,0.0737974,9.768518,0.0002528876,-0.0024706236,-0.0015273513,19840.0,20988.5,20611.5,
32.043,0.20777574,0.06182639,9.814008,-0.0058757364,-0.005668178,-0.002726432,19840.0,20988.5,21123.5,
32.158,0.20298734,0.0714032,9.857103,0.0005193651,0.0044573956,-0.0005947314,20096.0,20476.5,20611.5,
32.273,0.18622792,0.04985538,9.86668,0.0003861338,-0.0058014056,0.003801899,19328.0,20732.5,22147.5,
32.388,0.17665112,0.04746118,9.818796,-0.00067971648,0.0003272295,-0.002326738,20352.0,20732.5,21123.5,
32.509,0.17665112,0.06182639,9.809219,-0.0073412808,6.0766936e-05,-0.0009944253,19584.0,20988.5,20867.5,
32.626,0.22453514,0.09055681,9.888228,0.000785827636,-0.0006053895,-0.00046150108,19584.0,21244.5,21123.5,
32.743,0.19819892,0.06182639,9.876257,0.0027842968,0.00019399822,0.0024695872,19584.0,21244.5,21635.5,
32.860,0.20298734,0.037884372,9.797249,-0.00067971648,0.005656477,-0.0035258192,20096.0,21244.5,21635.5,
32.977,0.21495834,0.06900899,9.818796,-0.0005464852,0.0003272295,-0.0021935068,19584.0,20988.5,21123.5,
33.098,0.19101632,0.095345216,9.845133,0.0015852153,-0.0016712397,-0.0003282698,19840.0,21756.5,22403.5,
33.215,0.18383372,0.0211249584,9.802037,-0.0012126416,-0.0022041648,-0.0019270442,19328.0,20988.5,20867.5,
33.333,0.18383372,0.11928723,9.845133,0.0026510656,-0.000205695632,-0.00339258784,19328.0,20988.5,22403.5,
33.453,0.20777574,0.10252782,9.857103,-0.00014679134,0.0008601546,-0.0009944253,19328.0,21244.5,21123.5,
33.570,0.24129456,0.0737974,9.849921,-0.00014679134,0.00019399822,-0.0025932006,19584.0,21244.5,21379.5,
33.693,0.21016994,0.08576841,9.809219,-0.0022784918,-0.0010050833,-0.0019270442,19072.0,20988.5,21123.5,
33.810,0.17665112,0.0833742,9.864286,-0.0021452606,0.0035247804,-0.0037922818,19328.0,20988.5,22147.5,
33.929,0.23650616,0.095345216,9.840344,-0.00014679134,0.006589096,-0.0063236756,19584.0,21500.5,22403.5,
34.045,0.19580472,0.08576841,9.835556,-0.0014791042,-0.0003389269,-0.0012608878,19584.0,20988.5,21635.5,
34.161,0.21495834,0.04746118,9.845133,-0.0050763636,-0.00313678,-0.0020602756,18816.0,20988.5,21635.5,
34.283,0.23411196,0.030701768,9.849921,-0.0022784918,-0.0014047772,-0.0049913632,19328.0,21244.5,22915.5,
34.400,0.18143952,0.12168144,9.818796,-0.002411738,-0.005002022,-0.0008611949,19584.0,21244.5,22659.5,
34.515,0.17186272,0.0737974,9.806826,-0.00014679134,-0.0022041648,-0.00046150108,18816.0,19964.5,21123.5,
34.631,0.21735254,0.059432188,9.864286,0.0015852153,0.0008601546,-0.0024599694,19584.0,20732.5,21379.5,
34.748,0.24847716,0.092951016,9.861892,-0.00067971648,0.0011266135,0.0022031236,18816.0,20988.5,20611.5,
34.871,0.169468492,0.023519162,9.919353,-0.0020120292,-0.0004721582,0.0014037369,19584.0,21244.5,21379.5,
34.989,0.21256414,0.059432188,9.814008,-0.0050763636,0.0024589264,-0.0012608878,19328.0,20732.5,21379.5,
35.107,0.22453514,0.042672776,9.840344,-0.00094617908,0.0035247804,-0.005124594,19584.0,20988.5,22147.5,
35.225,0.21495834,0.0833742,9.845133,-0.0005464852,0.00019399822,-0.0001950385,20096.0,21500.5,22147.5,
35.341,0.18143952,0.0714032,9.85471,-0.0038772672,-0.0068672598,0.00020465534,20096.0,20988.5,21891.5,
35.464,0.20777574,0.0737974,9.823585,-0.0012126416,-0.0003389269,7.142406e-05,19328.0,20476.5,21379.5,
35.579,0.24847716,0.04506698,9.864286,-0.0026781856,-0.0023373962,-0.002726432,19328.0,20476.5,21891.5,
35.695,0.1646801,0.040278572,9.893017,-0.0016123354,0.0016595423,0.00073758052,19328.0,21244.5,21891.5,
35.812,0.19101632,0.023519162,9.804431,-0.003344342,-0.00273709,0.00193666116,19584.0,21244.5,22147.5,
35.934,0.18862212,0.0737974,9.799643,0.0002528876,-0.0023373962,-0.0019270442,19584.0,20732.5,21635.5,
36.050,0.20538154,0.0833742,9.833161,-0.00347757336,0.0032583176,0.0014037369,19840.0,20732.5,21891.5,
36.167,0.17665112,0.09055681,9.869075,-0.00347757336,-0.000738620736,-0.0009944253,19840.0,20988.5,22659.5,
36.285,0.19819892,0.109710424,9.904987,0.0019849092,0.0021924674,-0.0011276575,19584.0,21244.5,21379.5,
36.404,0.20777574,0.08098,9.797249,0.00464952,0.00072692332,-0.0016605817,19328.0,20732.5,22147.5,
36.525,0.18383372,0.08098,9.845133,0.0005193651,0.0024589264,0.00193666116,19328.0,21500.5,21891.5,
36.642,0.24368876,0.059432188,9.91217,-0.00347757336,-0.004202634,0.0016701994,19328.0,21244.5,20611.5,
36.759,0.19819892,0.112104624,9.885834,0.0011855215,0.0003272295,-0.00046150108,18816.0,21244.5,21635.5,
36.877,0.19580472,0.0737974,9.809219,-0.0026781856,0.00059369208,0.00073758052,19072.0,20476.5,20355.5,
36.993,0.21495834,0.040278572,9.869075,0.0017184466,0.0020592324,-0.003259357,19328.0,20732.5,20867.5,
37.131,0.21016994,0.0714032,9.847527,-0.0010794252,0.0003272295,0.00020465534,19584.0,21500.5,21891.5,
37.247,0.21016994,0.06422059,9.86668,0.0027842968,0.00059369208,-0.0031261258,19840.0,21500.5,22403.5,
37.363,0.21974674,0.08098,9.895411,-0.0013458729,-0.0011383183,-0.00046150108,19072.0,21244.5,21379.5,
37.480,0.20298734,0.109710424,9.830768,-0.0037440508,-7.246435e-05,-0.0036590504,19584.0,21244.5,21379.5,
37.598,0.21495834,0.05224958,9.797249,-0.0032111108,-0.0048687904,0.0011372734,19584.0,20476.5,21379.5,
37.721,0.21495834,0.092951016,9.833161,-0.00014679134,0.0024589264,-0.0025932006,19072.0,21244.5,21635.5,
37.839,0.19819892,0.06422059,9.861892,0.0013187528,-0.0019377023,-0.0019270442,19072.0,20732.5,21635.5,
37.957,0.169468492,0.092951016,9.890622,-0.006142199,0.0045906304,-0.005923982,19840.0,21244.5,21891.5,
38.074,0.20298734,0.06900899,9.825979,0.0003861338,-0.000205695632,-0.0049913632,19840.0,21244.5,22659.5,
38.191,0.1598917,0.08576841,9.871469,0.0026510656,-0.0006053895,-0.000727963636,19840.0,21244.5,21635.5,
38.314,0.19819892,0.06422059,9.816402,-0.00028002262,-0.0015380084,0.00073758052,19840.0,20988.5,21635.5,
38.431,0.18143952,0.0785858,9.871469,-0.0004132688,0.0021924674,-0.0021935068,19584.0,21244.5,21891.5,
38.546,0.23650616,0.054643784,9.814008,-0.0025449544,-7.246435e-05,0.0015369672,19584.0,21500.5,21379.5,
38.663,0.1551033,0.08816261,9.852315,-0.00081294776,0.0013930798,-0.0024599694,19072.0,21244.5,21635.5,
38.780,0.21256414,0.03309597,9.794854,0.0005193651,-7.246435e-05,-0.0031261258,19840.0,20476.5,21123.5,
38.901,0.19341052,0.006759748,9.840344,0.000785827636,0.003924474,-0.0024599694,19328.0,20988.5,21635.5,
39.018,0.20059312,0.059432188,9.878652,-0.0014791042,-0.0024706236,-0.0003282698,19584.0,20988.5,21635.5,
39.135,0.20059312,0.030701768,9.847527,-0.00081294776,0.00059369208,-0.0015273513,19328.0,21244.5,21123.5,
39.253,0.20059312,0.09773941,9.835556,-0.0038772672,-0.0004721582,-0.0020602756,19328.0,21500.5,21123.5,
39.369,0.21495834,0.0714032,9.859498,-0.00094617908,-0.0014047772,0.0027360496,20096.0,20988.5,21635.5,
39.491,0.18143952,0.05224958,9.804431,0.000919044,0.0024589264,-0.0001950385,19072.0,21244.5,22147.5,
39.606,0.1551033,0.08098,9.861892,-0.00028002262,-0.000871852064,-0.0021935068,19840.0,21756.5,23171.5,
39.722,0.21974674,0.06182639,9.881045,-0.0005464852,0.00019399822,-0.0005947314,19328.0,21244.5,22915.5,
39.838,0.20538154,0.042672776,9.835556,0.0002528876,0.0008601546,-0.0025932006,19584.0,20988.5,21891.5,
39.954,0.23171776,0.059432188,9.847527,-0.00347757336,0.00072692332,-0.0009944253,18816.0,21244.5,23171.5,
40.078,0.19341052,0.04506698,9.794854,-0.00067971648,0.0012598485,-0.002726432,19584.0,20988.5,22659.5,
40.194,0.1574975,0.0737974,9.845133,-0.002811417,-0.006600797,-0.0047249004,20096.0,20988.5,21891.5,
40.308,0.20777574,0.059432188,9.845133,-0.004676655,-0.0043358652,-0.003925513,19584.0,21244.5,23171.5,
40.424,0.20538154,0.10013361,9.802037,-0.0022784918,-0.00273709,-0.0040587444,19328.0,20988.5,22403.5,
40.541,0.22692934,0.06900899,9.852315,-0.0030778944,0.0013930798,-0.0011276575,19584.0,21244.5,21891.5,
40.664,0.18622792,0.059432188,9.900199,-0.0040104984,0.0020592324,-0.0008611949,19328.0,20732.5,22147.5,
40.781,0.17186272,0.06900899,9.785277,-0.0005464852,-0.000871852064,-6.180722e-05,19584.0,20476.5,21891.5,
40.898,0.21735254,0.057037988,9.852315,0.0005193651,-0.0035364776,-0.0021935068,19584.0,20732.5,21123.5,
41.015,0.19819892,0.023519162,9.821191,0.0005193651,0.0012598485,-6.180722e-05,19840.0,20988.5,22915.5,
41.132,0.20538154,0.054643784,9.830768,-0.0021452606,-0.0023373962,0.0024695872,19584.0,20732.5,22147.5,
41.256,0.20059312,0.057037988,9.869075,0.000919044,0.0008601546,-0.0035258192,19072.0,20988.5,21635.5,
41.371,0.21735254,0.04985538,9.885834,-0.0026781856,0.0020592324,-0.0043252064,18816.0,19964.5,21891.5,
41.488,0.24129456,0.04746118,9.859498,0.0010522902,0.0013930798,-0.0001950385,19584.0,20732.5,22147.5,
41.604,0.18862212,0.06661479,9.88344,-0.00094617908,6.0766936e-05,-0.005124594,19584.0,20732.5,22403.5,
41.720,0.20777574,0.114498824,9.904987,-0.00028002262,0.0008601546,0.0016701994,19328.0,20476.5,22403.5,
41.844,0.19341052,0.04985538,9.825979,0.001451984,0.000460457068,0.0024695872,19840.0,20988.5,21635.5,
41.961,0.19580472,0.06900899,9.823585,-0.0020120292,-0.0024706236,-0.0019270442,19584.0,21244.5,22659.5,
42.078,0.19101632,0.04506698,9.766124,-0.00361080468,0.0023256988,-0.0025932006,19584.0,21244.5,21891.5,
42.195,0.20538154,0.04506698,9.83795,0.0002528876,-0.004202634,0.0006043492,19584.0,20988.5,21635.5,
42.309,0.17665112,0.054643784,9.85471,-0.0017455816,0.0012598485,-0.0025932006,19584.0,21500.5,21635.5,
42.432,0.1622859,0.092951016,9.814008,-0.0049431176,-0.000738620736,-0.0012608878,20352.0,20988.5,21379.5,
42.550,0.20777574,0.06422059,9.821191,0.000119671224,-0.0023373962,-0.0031261258,19584.0,21244.5,21891.5,
42.668,0.19101632,0.06182639,9.888228,-0.00067971648,-0.000205695632,0.0024695872,19328.0,20988.5,21891.5,
42.786,0.17904532,0.08816261,9.890622,0.0010522902,-0.000738620736,0.0006043492,19840.0,20988.5,22659.5,
42.909,0.18143952,0.10013361,9.873863,0.000919044,-0.0012715459,-0.0021935068,19840.0,21756.5,23171.5,
43.025,0.20777574,0.095345216,9.83795,-0.0025449544,-0.0023373962,-0.0013941191,20096.0,21244.5,22915.5,
43.142,0.22453514,0.057037988,9.816402,-0.0026781856,0.0021924674,-0.002726432,19584.0,21244.5,22147.5,
43.265,0.20298734,0.0761916,9.825979,-0.0014791042,-0.0043358652,-0.0001950385,19328.0,21500.5,22659.5,
43.381,0.23411196,0.03549017,9.83795,-0.00361080468,-0.0022041648,0.002336355,19584.0,21500.5,21379.5,
43.503,0.22453514,0.0761916,9.818796,-0.003344342,6.0766936e-05,-0.0024599694,19328.0,21500.5,21379.5,
43.619,0.20777574,0.040278572,9.840344,0.001451984,-0.00180447468,0.0011372734,19584.0,21244.5,21891.5,
43.737,0.17665112,0.054643784,9.895411,-0.0022784918,-0.0026038588,0.0018034298,20096.0,21500.5,21635.5,
43.855,0.17904532,0.04985538,9.885834,0.00065259636,0.0043241644,-0.0009944253,19840.0,21244.5,23171.5,
43.971,0.18143952,0.05224958,9.847527,-0.0050763636,-0.0010050833,-0.0013941191,19584.0,21244.5,21891.5,
44.094,0.20298734,0.059432188,9.861892,-0.0037440508,-0.00273709,-0.0001950385,20096.0,20476.5,22147.5,
44.210,0.20298734,0.0785858,9.864286,0.0021181404,-0.0032700152,0.0014037369,19840.0,20988.5,21635.5,
44.326,0.23171776,0.023519162,9.809219,0.0005193651,-0.0012715459,-0.0025932006,19584.0,21244.5,22659.5,
44.444,0.20298734,0.06182639,9.907382,-0.004676655,-0.00180447468,-0.0053910568,19328.0,20988.5,22147.5,
44.561,0.21016994,0.10013361,9.809219,0.003317222,0.0019260049,-0.005923982,20096.0,21244.5,21123.5,
44.685,0.17904532,0.0761916,9.845133,-0.002811417,-0.0032700152,-0.0020602756,19584.0,20988.5,22659.5,
44.800,0.18143952,0.04985538,9.864286,0.0003861338,0.0008601546,-0.0021935068,20096.0,20476.5,22403.5,
44.915,0.18622792,0.10252782,9.83795,-0.0021452606,-0.0016712397,0.0034022052,19584.0,21500.5,22659.5,
45.032,0.20298734,0.042672776,9.833161,0.0003861338,0.0031250828,0.0014037369,19328.0,20476.5,22659.5,
45.149,0.22932354,0.06422059,9.852315,-0.00361080468,0.0008601546,0.00047111884,19840.0,21500.5,21891.5,
45.272,0.23171776,0.09055681,9.811614,-0.0044102072,0.0028586238,-0.0052578252,18560.0,20732.5,21635.5,
45.389,0.21016994,0.06900899,9.842738,-0.00414373,0.0003272295,-0.001793813,19840.0,20988.5,22147.5,
45.503,0.24847716,0.08098,9.88344,-0.0040104984,-7.246435e-05,-0.006190444,20096.0,21244.5,22659.5,
45.616,0.18383372,0.04746118,9.897805,-0.0004132688,0.0023256988,0.001004043,19840.0,21500.5,23171.5,
45.731,0.22214094,0.095345216,9.864286,-0.00094617908,6.0766936e-05,-0.0031261258,19584.0,21244.5,21891.5,
45.854,0.21256414,0.04506698,9.833161,-0.001878798,-0.0016712397,-0.0020602756,19840.0,21500.5,21635.5,
45.970,0.21256414,0.0737974,9.881045,-0.00094617908,-0.0014047772,-0.0016605817,19840.0,21500.5,22915.5,
46.087,0.20059312,0.0833742,9.785277,-0.0016123354,-7.246435e-05,-0.0008611949,20096.0,20988.5,21891.5,
46.202,0.21974674,0.059432188,9.871469,-0.0020120292,6.0766936e-05,0.0014037369,19584.0,22012.5,21379.5,
46.320,0.17425692,0.040278572,9.857103,0.000785827636,-0.0004721582,-0.0060572124,19840.0,21500.5,21123.5,
46.444,0.17186272,0.03309597,9.852315,0.000119671224,-0.0028703212,-0.0016605817,19840.0,21500.5,22915.5,
46.562,0.21974674,0.09055681,9.797249,-0.0030778944,-0.0006053895,-0.0045916692,19584.0,20988.5,20867.5,
46.679,0.1527091,0.04985538,9.825979,0.00065259636,-0.0015380084,-0.0016605817,19584.0,21244.5,20611.5,
46.795,0.19819892,0.0761916,9.799643,-0.0020120292,-0.0012715459,-0.0019270442,19584.0,21244.5,21891.5,
46.911,0.22692934,0.06422059,9.799643,-0.001878798,0.00059369208,0.0006043492,20096.0,20988.5,21891.5,
47.033,0.2628424,0.06661479,9.811614,0.0003861338,-0.0034032464,-0.000727963636,19840.0,21244.5,21635.5,
47.149,0.22932354,0.08816261,9.825979,0.0022513718,-0.0023373962,0.0011372734,19328.0,21500.5,20867.5,
47.266,0.20059312,0.08816261,9.876257,-0.00081294776,0.0011266135,0.00020465534,19584.0,20988.5,22147.5,
47.384,0.20059312,0.06900899,9.86668,-0.00014679134,-0.0010050833,-0.0011276575,20096.0,20988.5,21635.5,
47.501,0.22214094,0.08098,9.857103,-0.00014679134,0.000460457068,-6.180722e-05,20096.0,20476.5,21123.5,
47.624,0.18622792,0.057037988,9.878652,0.0011855215,-0.0014047772,0.0059335984,20352.0,21500.5,21379.5,
47.742,0.21016994,0.0714032,9.825979,0.0017184466,-0.0006053895,-0.0031261258,19840.0,21244.5,22147.5,
47.858,0.1646801,0.114498824,9.799643,0.0002528876,0.0028586238,0.0012705056,20352.0,21244.5,21635.5,
47.976,0.18143952,0.06422059,9.835556,-0.0057424904,-0.004602328,-0.0019270442,19328.0,21500.5,21379.5,
48.092,0.21495834,0.12407564,9.852315,-0.0030778944,0.0023256988,-0.002326738,20096.0,20988.5,21635.5,
48.216,0.20538154,0.04985538,9.835556,-0.0032111108,-0.0014047772,-0.00046150108,19840.0,21500.5,21635.5,
48.333,0.18622792,0.037884372,9.864286,-0.00014679134,-0.0006053895,-0.00752275664,19584.0,20988.5,20355.5,
48.451,0.19819892,0.095345216,9.787672,0.0019849092,0.0040577016,-0.0035258192,20352.0,21756.5,20867.5,
48.568,0.21016994,0.08098,9.823585,0.00065259636,0.0003272295,-0.0001950385,20096.0,21756.5,21635.5,
48.684,0.18622792,0.0737974,9.825979,-0.0021452606,-0.0023373962,-0.0011276575,20352.0,22012.5,21123.5,
48.806,0.22932354,0.06661479,9.806826,-0.0021452606,0.00019399822,7.142406e-05,19584.0,21756.5,22147.5,
48.923,0.19819892,0.04506698,9.857103,0.0015852153,-0.000871852064,0.0018034298,19840.0,22012.5,21635.5,
49.041,0.18143952,0.04506698,9.821191,0.0027842968,0.00019399822,-0.0031261258,20096.0,21756.5,22147.5,
49.158,0.20059312,0.06182639,9.835556,0.003317222,0.0036580116,-0.00046150108,20096.0,21756.5,21123.5,
49.274,0.1527091,0.109710424,9.904987,-0.0025449544,-0.0010050833,-0.0011276575,20352.0,21756.5,22403.5,
49.398,0.23411196,0.107316224,9.895411,-0.0045434236,0.00072692332,-0.0029928944,19328.0,20988.5,21635.5,
49.517,0.1622859,0.0833742,9.857103,-0.005609274,-0.0030035526,-0.0008611949,19328.0,21756.5,22147.5,
49.631,0.19580472,0.0761916,9.845133,-0.0016123354,0.0035247804,-0.0031261258,19584.0,21500.5,20867.5,
49.749,0.1622859,0.0211249584,9.818796,0.00371691568,-0.0016712397,-0.0011276575,19328.0,21756.5,21635.5,
49.874,0.19101632,0.04985538,9.861892,0.0026510656,-0.0026038588,-0.0031261258,20608.0,22012.5,21891.5,
49.991,0.26044816,0.0785858,9.790066,-0.0012126416,0.000460457068,-0.0003282698,19840.0,21756.5,21891.5,
50.107,0.17425692,0.06182639,9.940901,-0.00028002262,0.004723858,-0.0003282698,19840.0,21756.5,22147.5,
50.223,0.20059312,0.08576841,9.816402,-0.0025449544,-0.00273709,-0.0011276575,19840.0,21756.5,21891.5,
50.339,0.24129456,0.06900899,9.830768,0.0030507594,-0.0011383183,-6.180722e-05,20096.0,20988.5,21891.5,
50.461,0.21735254,0.06661479,9.857103,0.0026510656,0.0025921612,-0.0015273513,19328.0,20988.5,22659.5,
50.578,0.19101632,0.0714032,9.799643,-0.00520958,-0.004069403,0.0012705056,19584.0,20732.5,20867.5,
50.692,0.20777574,0.0761916,9.897805,-0.0026781856,-0.0014047772,-0.0008611949,19840.0,21500.5,21635.5,
50.808,0.1574975,0.08576841,9.816402,0.0031839908,0.0013930798,7.142406e-05,19584.0,20988.5,20867.5,
50.923,0.18143952,0.011548154,9.893017,-0.0017455816,0.0013930798,-6.180722e-05,19840.0,21500.5,22403.5,
51.045,0.17425692,0.06900899,9.828373,-0.0029446482,0.000460457068,-0.0025932006,19584.0,21244.5,21891.5,
51.163,0.18143952,0.095345216,9.849921,-0.0022784918,0.00179276984,-0.002726432,19840.0,21244.5,23683.5,
51.281,0.19341052,0.04506698,9.890622,0.00065259636,0.000460457068,0.000337886632,19840.0,22268.5,21635.5,
51.400,0.17904532,0.06422059,9.873863,-0.0026781856,-0.005401712,-0.001793813,20096.0,20988.5,20355.5,
51.515,0.23890036,0.03549017,9.864286,-0.0030778944,-0.0014047772,0.004601286,20608.0,21756.5,21635.5,
51.637,0.22214094,0.06182639,9.869075,-0.00014679134,0.0016595423,-0.005524288,19840.0,21500.5,21635.5,
51.754,0.1622859,0.03549017,9.830768,-0.00081294776,0.0028586238,-0.0036590504,19584.0,21756.5,21379.5,
51.870,0.20538154,0.0833742,9.830768,-0.0040104984,0.0003272295,-0.002726432,20096.0,22012.5,21891.5,
51.984,0.21735254,0.0714032,9.842738,-0.00094617908,0.00072692332,-0.000727963636,19840.0,21244.5,21891.5,
52.101,0.20298734,0.092951016,9.823585,-0.004676655,-0.000871852064,-0.00046150108,19328.0,21500.5,21635.5,
52.225,0.09285402,0.0785858,9.787672,-0.0026781856,-0.0030035526,-0.0008611949,19840.0,21500.5,21123.5,
52.340,0.21735254,0.04506698,9.86668,0.0038501472,0.0027253888,0.000337886632,19584.0,21756.5,21379.5,
52.457,0.2676308,0.028307564,9.909776,-1.3560057e-05,-0.00313678,-0.0016605817,20096.0,21500.5,21379.5,
52.573,0.21016994,0.028307564,9.825979,-0.0017455816,0.0008601546,-0.0011276575,19328.0,20988.5,20611.5,
52.690,0.21256414,0.0737974,9.83795,-0.002811417,0.000460457068,-0.0060572124,19840.0,21756.5,21379.5,
52.812,0.24608296,0.06422059,9.91217,-0.00081294776,-0.0010050833,0.000337886632,19584.0,21244.5,20867.5,
52.930,0.19580472,0.0714032,9.914564,0.0005193651,-0.0043358652,-0.0021935068,20096.0,21244.5,21635.5,
53.045,0.21256414,0.040278572,9.804431,-0.0020120292,0.0029918552,-0.00046150108,19840.0,21244.5,21635.5,
53.163,0.21735254,0.025913366,9.871469,-0.0026781856,-0.000205695632,0.00073758052,19584.0,21756.5,21379.5,
53.282,0.19341052,0.06900899,9.86668,-0.0010794252,0.00019399822,-0.0008611949,20096.0,21500.5,21123.5,
53.404,0.1622859,0.0833742,9.809219,-0.003344342,0.0012598485,-0.000727963636,19840.0,20988.5,21123.5,
53.520,0.19819892,0.06661479,9.849921,0.0011855215,0.0023256988,-0.0013941191,19840.0,20732.5,20355.5,
53.637,0.19341052,0.0714032,9.893017,-0.0038772672,-0.00313678,-6.180722e-05,19840.0,21244.5,20355.5,
53.751,0.20538154,0.030701768,9.830768,-0.001878798,0.0009933859,0.00020465534,19328.0,21500.5,21379.5,
53.867,0.21974674,0.04506698,9.885834,0.0022513718,-0.0023373962,-0.002326738,19840.0,21500.5,21379.5,
53.989,0.18383372,0.006759748,9.881045,-0.0029446482,0.0003272295,-0.0025932006,19840.0,21244.5,20099.5,
54.106,0.21735254,0.095345216,9.857103,-0.0020120292,0.0003272295,-0.0013941191,19584.0,20988.5,20611.5,
54.223,0.1622859,0.08098,9.933718,0.0010522902,0.0011266135,-0.003925513,19584.0,21500.5,21379.5,
54.338,0.24129456,0.0785858,9.802037,-0.0004132688,-7.246435e-05,-0.0020602756,19584.0,21244.5,20867.5,
54.453,0.21495834,0.054643784,9.835556,-0.0021452606,-0.000738620736,-0.001793813,19840.0,21244.5,21891.5,
54.583,0.20298734,0.05224958,9.814008,-0.00094617908,0.0019260049,-0.0015273513,19840.0,21500.5,22147.5,
54.702,0.18862212,0.028307564,9.909776,0.000919044,0.0021924674,7.142406e-05,19328.0,21756.5,20611.5,
54.818,0.20298734,0.054643784,9.847527,-0.0073412808,0.0025921612,-0.0019270442,19840.0,21244.5,20355.5,
54.936,0.18862212,0.06182639,9.88344,-0.002811417,-0.0062011032,-0.0036590504,19840.0,21500.5,19587.5,
55.051,0.20059312,0.0714032,9.852315,-0.0053428112,-0.0030035526,-0.0020602756,20352.0,21244.5,20611.5,
55.173,0.18383372,0.0714032,9.876257,0.0045163036,-0.0003389269,-0.0013941191,20096.0,21244.5,20867.5,
55.289,0.083277224,-0.041124284,10.264118,0.008646458,0.0008601546,-0.0021935068,19840.0,20988.5,21123.5,
55.405,1.5652881,-0.239843016,8.44213,-0.013603151,-0.25507706,-0.014584012,19840.0,22012.5,20099.5,
55.523,0.17904532,0.112104624,9.821191,0.00065259636,-0.01659314,0.0006043492,19328.0,20988.5,21635.5,
55.640,0.23171776,0.040278572,9.91217,-0.0062754304,-0.0189912984,0.0006043492,19328.0,20220.5,21123.5,
55.763,0.011451185,0.0785858,9.833161,-0.0014791042,0.0012598485,-0.005657519,20096.0,21244.5,22147.5,
55.879,0.20538154,0.107316224,9.828373,-0.003344342,-0.0039361716,7.142406e-05,20096.0,21756.5,21635.5,
55.996,0.18622792,0.0785858,9.85471,0.000919044,-0.0051352492,-0.00046150108,20096.0,21244.5,21123.5,
56.110,0.1527091,0.05224958,9.780489,-0.0045434236,0.0009933859,-0.0005947314,19840.0,21500.5,21635.5,
56.225,0.19819892,0.059432188,9.893017,-0.005609274,-0.00180447468,-0.0020602756,19840.0,20732.5,21379.5,
56.349,0.20059312,0.08816261,9.85471,-0.0004132688,-0.000205695632,-0.002326738,19584.0,21244.5,21379.5,
56.465,0.23171776,0.05224958,9.890622,-0.0013458729,0.0008601546,0.0014037369,19840.0,21244.5,20099.5,
56.581,0.1622859,0.08098,9.85471,-0.0037440508,-0.0023373962,-0.0001950385,19840.0,21244.5,22147.5,
56.695,0.18862212,0.0785858,9.811614,0.001451984,0.0040577016,-0.00046150108,19840.0,21500.5,20611.5,
56.810,0.17904532,0.0714032,9.852315,0.0005193651,-0.0020709336,-0.0015273513,19584.0,21756.5,21379.5,
56.932,0.18143952,0.04985538,9.895411,-0.0004132688,-0.0015380084,7.142406e-05,19584.0,20732.5,21891.5,
57.047,0.17425692,0.06900899,9.830768,0.000919044,-0.0006053895,-0.001793813,19840.0,21500.5,21379.5,
57.161,0.24368876,0.0761916,9.845133,-0.0022784918,-0.0016712397,-0.0028596632,19328.0,20988.5,19587.5,
57.277,0.1646801,0.0211249584,9.840344,0.0021181404,0.0027253888,-0.0016605817,20096.0,20988.5,19843.5,
57.395,0.1574975,0.09773941,9.818796,-0.001878798,-0.0010050833,-0.0031261258,20096.0,20988.5,19587.5,
57.517,0.17904532,0.06900899,9.864286,-0.0014791042,-0.000871852064,-0.0001950385,19840.0,20988.5,20867.5,
57.634,0.20538154,0.08816261,9.845133,0.002384603,-0.0016712397,0.0011372734,20096.0,21500.5,21379.5,
57.751,0.22932354,0.06422059,9.818796,0.0003861338,-0.0012715459,-0.0043252064,20096.0,21756.5,20611.5,
57.867,0.17186272,0.0761916,9.818796,-0.0022784918,0.0009933859,-0.001793813,19328.0,21500.5,20867.5,
57.982,0.1622859,0.114498824,9.835556,-0.0044102072,0.0003272295,-0.0016605817,19840.0,20732.5,20867.5,
58.105,0.23890036,0.0761916,9.840344,-0.0045434236,-0.00180447468,-0.0020602756,20096.0,20988.5,21379.5,
58.222,0.17186272,0.0737974,9.804431,-0.0020120292,0.0020592324,-0.0020602756,19584.0,21244.5,22147.5,
58.338,0.20538154,0.09055681,9.806826,-1.3560057e-05,-0.000871852064,-0.0013941191,19840.0,20732.5,21635.5,
58.456,0.17186272,0.06900899,9.785277,-0.0032111108,0.005123552,0.001004043,19840.0,21244.5,21635.5,
58.577,0.18622792,0.0737974,9.904987,0.0011855215,-0.0006053895,0.0011372734,19840.0,20732.5,21635.5,
58.693,0.19101632,0.0714032,9.881045,0.000119671224,0.0027253888,-0.003925513,19584.0,20988.5,20611.5,
58.810,0.1646801,0.0785858,9.878652,-0.0054760424,-0.0035364776,-0.002726432,19584.0,21244.5,21379.5,
58.924,0.21974674,0.04746118,9.814008,0.00185167792,0.001526311,-0.0016605817,20352.0,21244.5,20611.5,
59.042,0.20777574,0.042672776,9.823585,-0.0038772672,0.0020592324,-0.0001950385,19584.0,21500.5,22147.5,
59.165,0.1646801,0.04746118,9.857103,-0.0004132688,0.0016595423,-0.0003282698,19840.0,20732.5,20355.5,
59.280,0.17665112,0.107316224,9.909776,-0.0025449544,0.0021924674,0.0022031236,19840.0,20732.5,20867.5,
59.399,0.18383372,0.0785858,9.876257,0.0003861338,-0.004602328,-0.0053910568,20096.0,21244.5,22403.5,
59.513,0.22214094,0.06900899,9.897805,-0.0029446482,-0.004202634,-0.001793813,19328.0,20476.5,21123.5,
59.628,0.17425692,0.03309597,9.936112,-0.002811417,-0.0015380084,0.00073758052,20096.0,20220.5,20611.5,
59.750,0.17425692,0.059432188,9.833161,-0.0014791042,-0.0006053895,-0.0029928944,19584.0,20732.5,20611.5,
59.867,0.19580472,0.10013361,9.869075,-0.0025449544,0.0016595423,0.00087081176,19072.0,20732.5,21123.5,
59.985,0.169468492,0.0785858,9.802037,-0.0021452606,0.0032583176,-0.003925513,20352.0,21244.5,20867.5,
60.102,0.18622792,0.057037988,9.900199,0.000119671224,-0.000738620736,0.00073758052,19584.0,20476.5,19843.5,
60.222,0.1646801,0.059432188,9.864286,0.0011855215,-0.0010050833,-0.003259357,19840.0,20732.5,20867.5,
60.344,0.1455265,0.06661479,9.861892,-0.00028002262,-0.00380293668,7.142406e-05,19840.0,20988.5,20355.5,
60.461,0.19819892,0.04985538,9.876257,0.000785827636,0.00179276984,0.0006043492,19584.0,20988.5,21891.5,
60.579,0.20538154,0.054643784,9.840344,-0.0029446482,0.0016595423,-0.0052578252,19584.0,20476.5,20867.5,
60.697,0.21495834,0.095345216,9.852315,-0.0016123354,0.0016595423,-0.0009944253,19840.0,20476.5,20867.5,
60.814,0.18383372,0.09055681,9.809219,-0.0010794252,0.0031250828,-0.0016605817,19072.0,20476.5,20355.5,
60.938,0.22692934,0.037884372,9.833161,0.00065259636,-0.0022041648,7.142406e-05,19584.0,20732.5,21891.5,
61.055,0.19341052,0.08098,9.857103,0.000785827636,-0.0028703212,-0.0005947314,19072.0,21244.5,21379.5,
61.171,0.25805396,0.10492202,9.830768,-0.0026781856,-0.000871852064,-0.001793813,19840.0,20988.5,22147.5,
61.289,0.21495834,0.028307564,9.852315,0.000785827636,0.0011266135,-0.0028596632,19584.0,20988.5,21635.5,
61.408,0.119190268,0.030701768,9.821191,0.00185167792,-0.000871852064,0.00087081176,19072.0,20732.5,21379.5,
61.534,0.1407381,0.01633656,9.85471,-0.00014679134,-0.0003389269,-0.0020602756,19072.0,20732.5,21635.5,
61.649,0.13594967,0.01873076,9.840344,-0.001878798,0.0041909368,-0.0011276575,19584.0,21244.5,21891.5,
61.765,0.19580472,0.06661479,9.818796,-0.0029446482,-0.0014047772,-0.0040587444,19840.0,20988.5,20867.5,
61.882,0.085671424,-0.13210395,10.185109,0.002384603,-0.014861133,-0.0019270442,19584.0,20732.5,19331.5,
62.000,0.23411196,0.15998866,9.847527,0.0005193651,0.0024589264,-0.0029928944,19840.0,20220.5,20611.5,
62.123,0.13116127,0.0737974,10.043851,0.0031839908,0.0013930798,0.0030025114,20096.0,21756.5,19075.5,
62.241,0.28439018,0.0714032,9.823585,0.000785827636,0.0032583176,-0.0003282698,20352.0,19964.5,13187.5,
62.358,0.19580472,0.0785858,9.86668,-0.00520958,0.005123552,-0.003259357,18304.0,15868.5,9859.5,
62.471,0.21974674,0.08576841,9.761335,-0.0005464852,0.001526311,-0.0029928944,16768.0,14332.5,8835.5,
62.587,0.1598917,0.04506698,9.785277,-0.0022784918,-0.0072669532,-0.0024599694,15232.0,13820.5,7811.5,
62.709,0.473532136,0.14801764,9.002374,-0.010272369,-0.017925452,-0.000727963636,16256.0,16124.5,6019.5,
62.828,0.20298734,0.12886404,9.814008,-0.001878798,0.0028586238,-6.180722e-05,17024.0,18940.5,5763.5,
62.944,0.1551033,0.08816261,9.833161,-0.00028002262,-0.0015380084,0.0031357436,17024.0,18940.5,5763.5,
63.060,0.22692934,0.08098,9.811614,-0.00067971648,0.0024589264,-0.0012608878,17024.0,18172.5,5507.5,
63.176,0.19580472,0.054643784,9.857103,-0.002811417,-0.000738620736,-6.180722e-05,17024.0,19708.5,6531.5,
63.299,0.1670743,0.0737974,9.797249,0.0002528876,-0.0006053895,-0.000727963636,17536.0,19964.5,5763.5,
63.414,0.23650616,0.040278572,9.869075,-0.0053428112,-7.246435e-05,-0.0020602756,17024.0,19452.5,4739.5,
63.531,0.21495834,0.10252782,9.79246,0.001451984,-0.0026038588,-0.00046150108,17536.0,19708.5,3715.5,
63.647,0.17425692,0.06422059,9.852315,0.0013187528,-0.0015380084,-0.0012608878,17280.0,19196.5,4227.5,
63.764,0.1479207,0.092951016,9.840344,-0.002811417,-0.0026038588,7.142406e-05,16768.0,20476.5,3715.5,
63.885,0.1646801,0.06900899,9.904987,0.002384603,0.0012598485,-0.0045916692,17536.0,19964.5,4227.5,
64.001,0.19819892,0.09055681,9.857103,-0.0014791042,0.0009933859,-0.003925513,17024.0,19964.5,4995.5,
64.117,0.20298734,0.05224958,9.825979,-0.00014679134,0.0027253888,-0.0036590504,16512.0,19708.5,4995.5,
64.234,0.17904532,0.057037988,9.835556,-0.00014679134,-0.000871852064,-6.180722e-05,16512.0,19708.5,5251.5,
64.352,0.1598917,0.04985538,9.849921,0.0002528876,-0.0011383183,-0.0009944253,16768.0,19708.5,4995.5,
64.473,0.1646801,0.059432188,9.83795,0.0002528876,-0.0011383183,0.0006043492,16768.0,19964.5,4995.5,
64.588,0.17904532,0.0714032,9.902594,-0.00414373,0.000460457068,-0.0008611949,17280.0,19964.5,5507.5,
64.703,0.18383372,0.04985538,9.83795,-0.0062754304,-0.0012715459,-0.0001950385,16512.0,19708.5,5251.5,
64.819,0.13594967,0.04746118,9.825979,0.000119671224,0.0025921612,-0.0021935068,16512.0,19964.5,5251.5,
64.937,0.1646801,0.06182639,9.890622,-0.0025449544,-0.0003389269,-0.0049913632,16000.0,18684.5,4995.5,
65.058,0.20059312,0.0714032,9.86668,0.00371691568,-0.0015380084,-0.004191975,15488.0,17148.5,5251.5,
65.173,0.1527091,0.08098,9.852315,-0.0016123354,-0.0004721582,-0.005657519,14976.0,16380.5,5763.5,
65.288,0.18862212,0.059432188,9.873863,-0.0013458729,0.0016595423,0.00020465534,14720.0,17404.5,5251.5,
65.406,0.20777574,0.06182639,9.823585,-0.00347757336,0.003924474,-0.0003282698,14464.0,17148.5,4483.5,
65.522,0.1622859,0.06182639,9.818796,-0.0014791042,-0.0014047772,-0.00046150108,14464.0,16636.5,5251.5,
65.645,0.19580472,0.0761916,9.83795,-0.0010794252,-0.0016712397,7.142406e-05,14976.0,17148.5,3459.5,
65.760,0.17186272,0.028307564,9.893017,-0.0030778944,-0.0028703212,-0.0015273513,14208.0,16636.5,3971.5,
65.884,0.21016994,0.04746118,9.83795,-0.0014791042,-0.0024706236,-0.0016605817,14208.0,16892.5,3971.5,
66.001,0.18622792,0.095345216,9.909776,-0.00014679134,0.00019399822,0.00020465534,14720.0,17148.5,3971.5,
66.119,0.1670743,0.09773941,9.814008,0.0031839908,0.004723858,-0.0037922818,14464.0,17148.5,3715.5,
66.242,0.19580472,0.10252782,9.85471,-0.0040104984,0.0049903208,-0.0015273513,14464.0,16380.5,4227.5,
66.359,0.1503149,0.10013361,9.833161,-0.0012126416,-0.0030035526,-0.0005947314,14464.0,16636.5,4739.5,
66.476,0.19341052,0.092951016,9.828373,-0.00067971648,-0.0004721582,0.0015369672,14720.0,16892.5,4995.5,
66.593,0.13594967,0.057037988,9.85471,-0.006142199,0.0008601546,-0.0028596632,13696.0,16892.5,3459.5,
66.709,0.20777574,0.0833742,9.876257,-0.0026781856,0.00019399822,-0.0036590504,14208.0,16636.5,3715.5,
66.832,0.17425692,0.028307564,9.773307,-0.00028002262,0.0031250828,-0.0011276575,14976.0,17404.5,4995.5,
66.950,0.19341052,0.04985538,9.852315,-0.002411738,-0.0030035526,-0.0011276575,14208.0,16892.5,3203.5,
67.066,0.21735254,0.06900899,9.871469,-0.0045434236,0.0016595423,-0.0003282698,13952.0,16636.5,1923.5,
67.183,0.1598917,0.057037988,9.828373,-0.0026781856,-0.0016712397,-0.005657519,13952.0,17148.5,3203.5,
67.300,0.1503149,0.08098,9.830768,0.0029175282,-0.0039361716,0.0006043492,14208.0,17148.5,3203.5,
67.421,0.18862212,0.0833742,9.840344,-0.0022784918,-0.0011383183,-0.002726432,13952.0,17404.5,3459.5,
67.537,0.13116127,0.06661479,9.876257,0.006514773,0.000460457068,-0.0003282698,14720.0,17404.5,2691.5,
67.654,0.19101632,0.06182639,9.852315,-0.00094617908,0.00059369208,-0.0016605817,14464.0,17148.5,3459.5,
67.771,0.1407381,0.0737974,9.818796,-0.0012126416,0.001526311,-0.00046150108,14208.0,16892.5,2947.5,
67.885,0.17665112,0.06422059,9.916959,0.0005193651,-0.0035364776,-0.0037922818,14976.0,17916.5,2691.5,
68.009,0.19341052,0.059432188,9.888228,0.0025178344,0.00059369208,-0.0013941191,14208.0,17660.5,3459.5,
68.127,0.18143952,0.09055681,9.895411,-0.00081294776,0.0041909368,-0.002726432,14976.0,16892.5,2691.5,
68.243,0.19819892,0.04506698,9.787672,0.0003861338,-0.00180447468,-0.0013941191,14720.0,17404.5,2947.5,
68.361,0.1670743,0.06661479,9.823585,-0.0026781856,-0.0011383183,-0.004191975,15232.0,17404.5,3715.5,
68.477,0.19819892,0.04506698,9.825979,0.0011855215,-0.0015380084,0.0006043492,15232.0,17404.5,3203.5,
68.599,0.17665112,0.04506698,9.859498,-0.0005464852,0.00059369208,-0.0025932006,14720.0,16892.5,3715.5,
68.716,0.18862212,0.0761916,9.840344,0.0005193651,0.00072692332,-0.0008611949,13696.0,16636.5,3715.5,
68.831,0.17186272,0.11928723,9.825979,-0.0044102072,0.0023256988,-0.0013941191,14208.0,17404.5,3971.5,
68.949,0.19101632,0.0211249584,9.869075,-0.006541893,-0.0022041648,-0.0040587444,14976.0,16892.5,3971.5,
69.066,0.12876708,0.06900899,9.85471,-0.0025449544,-0.0004721582,-0.005923982,14208.0,16636.5,3971.5,
69.187,0.1646801,0.08816261,9.833161,0.002384603,-7.246435e-05,0.00193666116,14208.0,16380.5,4739.5,
69.303,0.1598917,0.05224958,9.780489,-1.3560057e-05,0.0024589264,-0.0065901376,14208.0,16124.5,4739.5,
69.419,0.1646801,0.08816261,9.821191,-0.0030778944,-0.0051352492,-0.004458438,14720.0,16892.5,4739.5,
69.534,0.18383372,0.08576841,9.835556,-0.0010794252,-0.000738620736,-6.180722e-05,13952.0,16380.5,3715.5,
69.651,0.19101632,0.06900899,9.835556,-0.0005464852,-0.0016712397,-0.002726432,14464.0,16892.5,4483.5,
69.772,0.1670743,0.08576841,9.861892,-1.3560057e-05,0.0031250828,-0.0021935068,14464.0,17404.5,4995.5,
69.888,0.1670743,0.06182639,9.885834,-0.0022784918,0.0044573956,0.000337886632,13696.0,16892.5,4483.5,
70.005,0.18622792,0.09055681,9.835556,-0.0026781856,6.0766936e-05,-0.00046150108,14208.0,17148.5,4995.5,
70.122,0.1646801,0.040278572,9.86668,0.0002528876,-0.00380293668,-0.0036590504,15232.0,16124.5,4483.5,
70.239,0.1455265,0.054643784,9.847527,-0.0016123354,-0.0011383183,0.001004043,14464.0,16380.5,4739.5,
70.362,0.1551033,0.08816261,9.861892,-0.0029446482,6.0766936e-05,0.000337886632,14208.0,16380.5,4227.5,
70.480,0.1479207,0.042672776,9.804431,0.002384603,-0.000738620736,-0.002326738,14464.0,16636.5,5507.5,
70.596,0.21256414,0.06661479,9.878652,0.00185167792,0.0003272295,-0.0008611949,14720.0,17148.5,3971.5,
70.713,0.18862212,0.06422059,9.909776,-0.0053428112,-0.0022041648,-0.000727963636,14976.0,17148.5,4483.5,
70.831,0.1646801,0.107316224,9.823585,-0.00347757336,0.0011266135,-0.0049913632,14720.0,16636.5,3715.5,
70.956,0.1646801,0.09055681,9.85471,0.0002528876,0.0043241644,0.00087081176,14720.0,16380.5,4739.5,
71.071,0.13116127,0.0785858,9.823585,-0.0050763636,-0.0024706236,-0.004191975,13952.0,16892.5,5251.5,
71.187,0.19101632,0.06661479,9.869075,-0.0038772672,0.0012598485,-0.0012608878,14208.0,16892.5,3971.5,
71.304,0.18383372,0.025913366,9.83795,0.00185167792,-0.000871852064,-0.0005947314,14208.0,16380.5,4739.5,
71.423,0.18862212,0.06182639,9.840344,0.00065259636,-0.0020709336,-0.0035258192,13952.0,17660.5,4739.5,
71.546,0.1670743,0.112104624,9.840344,-0.0017455816,0.00019399822,-0.0053910568,14464.0,17148.5,4739.5,
71.664,0.1574975,0.06900899,9.79246,-0.0029446482,0.0020592324,-0.0001950385,14720.0,17148.5,5251.5,
71.779,0.18862212,0.107316224,9.811614,-1.3560057e-05,-7.246435e-05,-0.0021935068,13696.0,16892.5,3971.5,
71.897,0.1598917,0.042672776,9.864286,-0.00081294776,0.0008601546,-0.0015273513,14976.0,16892.5,4227.5,
72.020,0.18622792,0.10013361,9.751759,-0.003344342,-0.0011383183,-6.180722e-05,14208.0,16892.5,4739.5,
72.136,0.18622792,0.0833742,9.840344,-0.0021452606,0.0021924674,-0.003259357,14208.0,16892.5,4483.5,
72.251,0.18862212,0.06900899,9.780489,-0.0032111108,-0.0006053895,-0.0020602756,14208.0,16892.5,4739.5,
72.367,0.19819892,0.0785858,9.828373,-0.0021452606,0.00059369208,-0.0020602756,14208.0,17148.5,3459.5,
72.484,0.13594967,0.092951016,9.835556,0.0010522902,0.003924474,-0.000727963636,14208.0,16380.5,5507.5,
72.608,0.18143952,0.08098,9.864286,-0.0029446482,0.0020592324,-0.0003282698,14464.0,16892.5,4227.5,
72.724,0.18622792,0.08098,9.840344,-0.00414373,0.0019260049,-0.002726432,13696.0,16124.5,4227.5,
72.839,0.18143952,0.06182639,9.842738,0.0002528876,-0.0006053895,-0.005657519,14464.0,16636.5,3971.5,
72.954,0.1503149,0.0785858,9.857103,-0.0053428112,-0.0034032464,-0.0020602756,14208.0,16892.5,3971.5,
73.070,0.1598917,0.08576841,9.821191,0.000919044,-7.246435e-05,7.142406e-05,14464.0,16380.5,4227.5,
73.184,0.17186272,0.06661479,9.86668,0.0010522902,0.0023256988,-0.000727963636,14464.0,16380.5,3971.5,
73.308,0.17665112,0.0714032,9.806826,0.0010522902,0.0031250828,0.000337886632,13440.0,17148.5,2691.5,
73.425,0.20298734,0.092951016,9.85471,-0.0004132688,-0.004602328,-0.001793813,14720.0,17148.5,4739.5,
73.540,0.20298734,0.06661479,9.85471,-0.0045434236,-0.0026038588,-0.0005947314,13696.0,16892.5,3715.5,
73.656,0.18383372,0.0785858,9.825979,-0.0022784918,0.0043241644,-0.005124594,14464.0,16380.5,4483.5,
73.772,0.18862212,0.0761916,9.849921,-1.3560057e-05,-0.003669709,-0.0025932006,14208.0,16892.5,3971.5,
73.894,0.17425692,0.05224958,9.86668,-0.0026781856,0.001526311,-0.0040587444,14720.0,17148.5,4739.5,
74.010,0.23171776,0.10013361,9.790066,-0.0005464852,-7.246435e-05,-0.0013941191,14208.0,16380.5,4483.5,
74.127,0.13834387,0.040278572,9.852315,-0.0012126416,-0.004202634,-0.003925513,13440.0,14844.5,4995.5,
74.244,0.10721928,0.04746118,9.873863,-0.00014679134,0.0025921612,-0.0029928944,13440.0,14844.5,4483.5,
74.361,0.17904532,0.025913366,9.85471,0.00065259636,-7.246435e-05,-0.0015273513,13696.0,14844.5,6531.5,
74.515,0.12876708,0.06661479,9.802037,0.0013187528,0.005123552,-0.003925513,13696.0,12796.5,8323.5,
74.631,0.21256414,0.109710424,9.852315,-0.0060089676,0.0036580116,-0.003259357,14464.0,12028.5,8067.5,
74.749,0.17186272,0.04985538,9.857103,0.0019849092,0.003791239,-0.00046150108,14976.0,11772.5,9091.5,
74.866,0.32509164,0.0785858,9.85471,0.00371691568,0.0059229432,-0.003259357,14464.0,10492.5,9091.5,
74.982,0.17425692,0.06422059,9.857103,0.000119671224,-0.00273709,-0.005124594,14976.0,9468.5,7811.5,
75.104,0.24129456,0.04506698,9.976813,0.0045163036,0.00059369208,-0.0008611949,15232.0,9980.5,7555.5,
75.221,0.10721928,0.0761916,9.876257,-0.0010794252,-0.0047355556,-0.0043252064,14976.0,11004.5,4227.5,
75.337,0.23890036,0.06182639,9.972025,-0.0010794252,0.0036580116,0.00020465534,14464.0,11260.5,-380.5,
75.454,0.19341052,0.08098,9.847527,-0.0040104984,-0.0011383183,-0.003259357,14720.0,12540.5,-892.5,
75.570,0.1646801,0.08816261,9.876257,-0.0029446482,-0.0022041648,0.00193666116,14208.0,12028.5,131.5,
75.694,0.1479207,0.01873076,9.845133,-0.0038772672,0.0024589264,-0.0031261258,14976.0,12284.5,643.5,
75.811,0.1431323,0.0761916,9.845133,-0.00014679134,0.0024589264,-0.0013941191,14720.0,12284.5,-1148.5,
75.927,0.1646801,0.09055681,9.845133,-0.001878798,-0.0010050833,-0.0021935068,14720.0,12028.5,-892.5,
76.043,0.18383372,0.04985538,9.847527,-0.0013458729,0.0029918552,0.0011372734,14208.0,12540.5,-1404.5,
76.160,0.17186272,0.08576841,9.904987,-0.002411738,-0.0010050833,-0.0028596632,14976.0,12284.5,-124.5,
76.288,0.20298734,0.10252782,9.828373,-0.00081294776,-0.0032700152,-0.0016605817,13952.0,12540.5,387.5,
76.406,0.20777574,0.0785858,9.897805,-0.0030778944,-0.0010050833,-0.003259357,14464.0,12028.5,131.5,
76.522,0.1598917,0.06422059,9.849921,0.0027842968,0.000460457068,0.00047111884,14720.0,12540.5,-380.5,
76.640,0.1455265,0.114498824,9.852315,-0.00414373,0.0009933859,-0.002326738,14720.0,12796.5,-892.5,
76.756,0.18383372,0.08816261,9.828373,-0.0022784918,-0.0012715459,0.00087081176,14464.0,11772.5,-1660.5,
76.880,0.1646801,0.092951016,9.897805,-0.0038772672,-0.0023373962,-0.0031261258,14464.0,12028.5,-1148.5,
76.997,0.1646801,0.0833742,9.847527,-0.0017455816,-0.0032700152,-0.0040587444,14976.0,11516.5,-2172.5,
77.113,0.17186272,0.0785858,9.869075,-0.00014679134,-0.0032700152,0.00073758052,14720.0,11772.5,-2940.5,
77.230,0.20059312,0.092951016,9.888228,-0.00361080468,-0.0011383183,-0.0020602756,14976.0,12284.5,-3452.5,
77.355,0.17186272,0.10013361,9.861892,-0.0013458729,-0.0019377023,0.0012705056,14208.0,12284.5,-2428.5,
77.475,0.1503149,0.042672776,9.833161,-0.004809886,-0.0012715459,-0.0029928944,14464.0,12796.5,-4220.5,
77.591,0.19341052,0.06900899,9.799643,-0.0013458729,-0.0024706236,0.00047111884,14720.0,12796.5,-3708.5,
77.708,0.20777574,0.042672776,9.861892,-0.00028002262,-0.0015380084,-0.0005947314,14720.0,12540.5,-2940.5,
77.826,0.1503149,0.0761916,9.818796,-0.00067971648,-0.000738620736,-0.0012608878,14464.0,13052.5,-3708.5,
77.948,0.19341052,0.054643784,9.833161,-0.004276961,-0.0014047772,-0.0016605817,14464.0,13052.5,-3708.5,
78.065,0.22214094,0.06661479,9.861892,0.0025178344,0.00019399822,-0.0024599694,14208.0,12284.5,-3708.5,
78.183,0.20059312,0.10492202,9.825979,-0.0016123354,-0.0004721582,-0.0029928944,14720.0,12028.5,-3964.5,
78.301,0.1622859,0.054643784,9.86668,-0.0030778944,-0.0016712397,0.0018034298,13696.0,12284.5,-3964.5,
78.418,0.20777574,0.0761916,9.900199,-0.0021452606,0.0027253888,0.00020465534,13696.0,13052.5,-3196.5,
78.541,0.1646801,0.10013361,9.871469,-0.0012126416,-0.0012715459,-0.0012608878,13440.0,13308.5,-3452.5,
78.659,0.1574975,0.057037988,9.869075,-0.0037440508,-7.246435e-05,-0.0011276575,13440.0,12796.5,-3708.5,
78.776,0.17665112,0.06661479,9.79246,-0.0022784918,-0.000738620736,-0.0003282698,13952.0,13308.5,-3964.5,
78.893,0.25087136,0.08576841,9.878652,-0.0010794252,0.0013930798,0.00020465534,14208.0,12284.5,-4220.5,
79.011,0.1622859,0.04985538,9.897805,-0.00094617908,0.00059369208,0.0012705056,14208.0,12540.5,-3708.5,
79.133,0.17665112,0.10492202,9.969631,0.005582154,0.0023256988,-0.0036590504,13952.0,12028.5,-3964.5,
79.250,0.1574975,0.06182639,9.770912,-1.3560057e-05,0.0020592324,0.002336355,13440.0,11516.5,-1916.5,
79.366,0.1574975,0.030701768,9.804431,-0.0026781856,0.0031250828,0.0006043492,13696.0,12540.5,-4220.5,
79.482,0.22453514,0.06422059,9.809219,0.0002528876,6.0766936e-05,-0.0024599694,14208.0,12540.5,-4988.5,
79.599,0.20538154,0.030701768,9.871469,-0.00361080468,0.0044573956,0.0059335984,13952.0,12284.5,-5244.5,
79.724,0.1622859,0.037884372,9.794854,-0.006541893,-0.0014047772,-0.0036590504,13952.0,12540.5,-4220.5,
79.841,0.21974674,0.095345216,9.761335,-0.0012126416,-0.0019377023,-0.0015273513,13952.0,12028.5,-4732.5,
79.960,0.25805396,0.08816261,9.861892,0.000785827636,0.0013930798,-0.00046150108,13952.0,11772.5,-3964.5,
80.078,0.17186272,0.04985538,9.86668,-0.0021452606,0.0035247804,-0.0035258192,14208.0,12028.5,-5244.5,
80.196,0.17186272,0.107316224,9.938506,-0.0012126416,0.0028586238,-0.002726432,13952.0,12796.5,-4988.5,
80.320,0.20777574,0.0761916,9.885834,-0.0038772672,0.00059369208,7.142406e-05,14208.0,12028.5,-4476.5,
80.436,0.19341052,0.08816261,9.878652,0.000919044,0.0032583176,-0.0008611949,14464.0,12284.5,-5244.5,
80.551,0.1551033,0.0785858,9.849921,-0.0005464852,6.0766936e-05,-0.0019270442,13696.0,12284.5,-4732.5,
80.666,0.18383372,0.0761916,9.861892,0.0010522902,-0.0035364776,-0.0048581316,14720.0,12540.5,-2684.5,
80.782,0.23171776,0.059432188,9.847527,0.000785827636,-0.0004721582,-0.000727963636,14720.0,12540.5,1411.5,
80.907,0.1574975,0.059432188,9.821191,-0.0014791042,0.0075217187,-0.0016605817,13952.0,12796.5,6531.5,
81.026,0.19341052,0.0737974,9.816402,0.000919044,-0.0026038588,-0.0028596632,13440.0,12796.5,7555.5,
81.141,0.1646801,0.05224958,9.828373,-0.0022784918,0.003791239,-6.180722e-05,12928.0,13308.5,8579.5,
81.256,0.18622792,0.04506698,9.869075,0.0011855215,0.0033915452,0.0006043492,12416.0,13564.5,9603.5,
81.372,0.1407381,0.023519162,9.835556,-0.0012126416,0.0012598485,-0.0001950385,11136.0,14076.5,9859.5,
81.495,0.169468492,0.042672776,9.928929,-0.0026781856,-0.0006053895,-0.0012608878,11904.0,14076.5,9859.5,
81.614,0.1455265,0.054643784,9.828373,0.0013187528,-0.0014047772,-0.0025932006,11648.0,14076.5,10883.5,
81.731,0.18862212,0.0785858,9.811614,0.0003861338,-0.004069403,-0.0009944253,11392.0,13820.5,9859.5,
81.845,0.19580472,0.037884372,9.842738,0.0010522902,-0.0004721582,-0.0020602756,12672.0,13308.5,8835.5,
81.962,0.18383372,0.12168144,9.849921,-0.0020120292,0.0036580116,-0.0009944253,13696.0,13308.5,7811.5,
82.085,0.18383372,0.059432188,9.825979,-0.00694158636,0.00059369208,0.0024695872,13440.0,13564.5,7043.5,
82.204,0.19101632,0.06900899,9.857103,-0.0053428112,-0.004202634,-0.0005947314,12928.0,12028.5,7811.5,
82.320,0.17425692,0.04985538,9.794854,-0.0044102072,-0.031248578,0.0011372734,14464.0,12028.5,9859.5,
82.438,0.19101632,0.08576841,10.029486,0.00464952,-0.179401716,0.00087081176,15232.0,11260.5,9859.5,
82.556,0.1431323,0.030701768,9.778095,-0.014402524,0.21562892,0.177535432,17024.0,9468.5,9091.5,
82.678,0.50944516,0.0833742,9.916959,-0.015201926,0.0488234,0.0928003664,16256.0,8444.5,9091.5,
82.793,0.1574975,0.10013361,9.713451,-0.0029446482,0.019379298,-0.0028596632,15744.0,8956.5,4739.5,
82.910,0.083277224,0.2222379,11.506708,-0.011871144,0.09905158,-0.003925513,16000.0,8956.5,-1660.5,
83.026,0.10961348,0.04985538,9.864286,0.000119671224,0.0021924674,-0.0016605817,16512.0,8700.5,-9084.5,
83.144,0.1622859,0.092951016,9.869075,-0.003344342,-0.0006053895,-0.0024599694,16512.0,8700.5,-10876.5,
83.266,0.169468492,0.06422059,9.833161,0.0021181404,-0.004602328,-0.000727963636,16256.0,8700.5,-9852.5,
83.385,0.1574975,0.0737974,9.83795,-0.002411738,-0.000871852064,-0.0003282698,15744.0,8956.5,-9852.5,
83.499,0.17904532,0.112104624,9.823585,-0.004809886,-0.0026038588,7.142406e-05,16000.0,8188.5,-9340.5,
83.616,0.06891203,0.095345216,9.914564,-0.0025449544,-0.0023373962,-0.0060572124,15488.0,9212.5,-8572.5,
83.733,0.28199598,0.059432188,9.739788,-0.0010794252,0.0023256988,7.142406e-05,13440.0,9212.5,-5244.5,
83.856,0.13834387,0.030701768,9.914564,-0.0004132688,0.0075217187,0.0016701994,9600.0,10236.5,387.5,
83.975,0.27481338,0.0714032,9.766124,-0.00028002262,-0.000738620736,0.0018034298,8320.0,9980.5,3203.5,
84.093,0.21256414,0.06661479,9.888228,0.010511711,-0.0058014056,-0.2678566,8576.0,11004.5,4739.5,
84.209,0.03060478,0.030701768,9.926536,0.008779705,-0.0060678684,-0.17073104,8832.0,11260.5,4227.5,
84.325,0.23650616,0.0761916,9.833161,0.0077138548,-0.0052684844,-0.18098984,8320.0,12028.5,2947.5,
84.449,0.35861044,0.04506698,9.878652,0.0069144664,-0.0062011032,-0.21016748,8064.0,11260.5,3203.5,
84.565,0.32748584,0.04506698,9.931324,0.0193049616,-0.0062011032,-0.36191784,9088.0,11004.5,4739.5,
84.682,0.5357814,0.06182639,9.871469,0.018505588,0.0023256988,-0.4840909,10880.0,10748.5,4739.5,
84.798,0.4448017,-0.041124284,9.146026,-0.0014791042,0.15194438,-0.74842168,13696.0,8700.5,4483.5,
84.914,-1.001296,0.21026689,10.046246,0.211157952,0.7963839,-0.3135549,12416.0,6908.5,6275.5,
85.038,-1.3580322,0.375466832,9.655991,0.121759792,0.5324528,-0.1514125,5248.0,4860.5,7299.5,
85.156,-1.1712844,0.3443422,9.533886,0.11190068,0.58161516,-0.2897065,640.0,3580.5,6787.5,
85.271,-2.8352546,0.449687068,9.100535,0.25672304,1.4997115,-0.22642168,-4480.0,2555.5,7811.5,
85.389,-3.94137568,0.9428926,7.324038,0.491343268,2.861468,1.1904926,-7808.0,-5892.5,1154.5,
85.506,1.1439086,-0.06506631,4.506063,4.315613,-3.46874784,0.59654768,-23168.0,-32260.5,642.5,
85.623,-4.606964,-0.419408136,-0.89286216,-1.903888,4.410148,-4.376841,-28800.0,-3844.5,1153.5,
85.744,-4.784135,2.6427758,3.201223,-0.7146659,-1.372754,1.659733,30592.0,-17412.5,-22141.5,
85.858,-5.748998,1.2206199,6.92899436,-0.79660312,-0.37951504,0.4729091,-28032.0,-29956.5,11138.5,
85.976,-4.4393696,-0.72826016,6.411847,-0.91850968,-0.60694076,0.2465492,14208.0,10236.5,-24957.5,
86.092,-7.281287,0.0211249584,11.075752,-0.65497832,-0.38497752,0.026717674,-1408.0,2044.5,-31613.5,
86.210,-5.406627,1.2469564,9.940901,0.6293708,0.14821391,0.6565017,-9344.0,-9987.5,21633.5,
86.331,-6.1895312,1.8814196,7.2833368,-0.39491092,0.115971944,-0.40628386,896.0,27132.5,-8829.5,
86.451,-6.99877168,2.0298602,6.3304444,-0.43954336,-1.0359454,-0.32234818,-8320.0,-15108.5,-3197.5,
86.570,-6.246992,0.56939716,4.247489,0.5219864,-0.7253833,-0.3079592,-640.0,-2308.5,1666.5,
86.684,-4.3196596,-0.179988,6.325656,0.19716868,-0.67821944,-0.24627314,1920.0,-3.5,3714.5,
86.799,-5.272552,0.9381042,6.998427,0.8642575,-1.3748857,0.8346319,896.0,-4355.5,8066.5,
86.919,-1.1880438,1.1559765,8.042298,0.7532759,-0.87939864,1.2593731,896.0,-14595.5,15490.5,
87.036,1.2157347,1.1871011,6.826044,-0.962209664,-0.63265436,0.075613532,128.0,-15619.5,19586.5,
87.154,2.987444,-0.6109443,13.728528,-1.3603046,-1.1094891,0.15382026,3200.0,3068.5,15747.5,
87.271,0.07848883,-0.6660109,8.298478,-1.3068789,-0.36659156,0.0067329864,12672.0,20220.5,6787.5,
87.387,2.8246382,-2.9859924,6.98885,0.466429,0.94840072,0.55231492,19584.0,-28931.5,-7804.5,
87.502,0.8566044,-1.85353484,9.447695,-0.14896609,0.074004104,0.123710016,15232.0,-31491.5,-7292.5,
87.632,0.5214162,-2.0498596,9.428541,0.4044765,0.028039326,-0.051755524,13184.0,-29443.5,-8572.5,
87.748,0.6100016,-1.3531468,9.138844,0.62830496,0.027772864,0.04683559,13184.0,29436.5,-4732.5,
87.863,0.760836336,0.883037536,16.038932,0.136282,0.8483441,0.26107144,20864.0,14588.5,10371.5,
87.980,-0.400351468,0.88064332,10.067793,0.026099756,-0.020590074,-0.86886268,14464.0,12028.5,3203.5,
88.099,-1.0300264,0.41616824,10.0630048,0.011710793,0.023109772,-0.20657022,17024.0,12284.5,2435.5,
88.224,0.21735254,-0.0076054632,9.86668,-0.012803763,0.004857093,0.13450174,18048.0,13052.5,2435.5,
88.341,0.32988004,-0.09619093,9.955266,-0.010538831,-0.025919326,0.23309286,16512.0,13564.5,899.5,
88.458,0.19341052,0.0785858,9.881045,-0.017999784,0.003791239,0.406027016,16512.0,14332.5,1923.5,
88.574,0.037787436,-0.024364874,9.869075,-0.024794564,-0.021922388,0.5315308,15744.0,14076.5,3459.5,
88.691,0.353822032,-0.06985471,9.857103,-0.012004375,0.030970414,0.5615079,14464.0,14588.5,5251.5,
88.814,-0.47936016,0.55742616,9.981602,-0.032655224,-0.09546603,0.30130726,13184.0,13052.5,6275.5,
88.931,0.5621176,0.04985538,9.339956,-0.0017455816,0.017913754,0.00020465534,14720.0,11260.5,7811.5,
89.047,0.03299904,-0.019576468,10.175532,0.011044636,-0.489564068,-0.16726701,16000.0,9980.5,8835.5,
89.165,0.81350872,-0.40983134,9.706269,-0.07142551,-0.89005716,-1.1032164,26240.0,6652.5,7811.5,
89.283,0.7153465,1.1200636,9.526704,-0.0931422,0.8820516,-1.0465932,-28032.0,1532.5,6787.5,
89.403,1.4383954,-0.19914159,9.067017,0.044752136,-0.35233588,1.0580608,27008.0,-3.5,8578.5,
89.522,1.4264244,1.0865448,10.09413,-0.01613453,-0.07747982,0.6350515,12928.0,2300.5,3459.5,
89.637,0.4567727,-2.0115524,10.584941,-0.016001314,0.08173151,0.37138692,7552.0,4092.5,5251.5,
89.753,0.4495901,-0.13449815,9.780489,0.007847086,0.0032583176,-0.20257328,3200.0,7932.5,3715.5,
89.869,0.119190268,0.109710424,9.88344,-0.00414373,0.010452803,-0.0011276575,5504.0,7164.5,6275.5,
89.987,0.22692934,-0.16083437,9.871469,-0.0092065184,-7.246435e-05,0.19325672,6272.0,6396.5,7555.5,
90.110,0.21016994,0.06900899,9.761335,0.0025178344,0.00738848368,-0.06054879,5248.0,6652.5,7299.5,
90.227,-0.15614295,0.2150553,9.59853,0.0013187528,0.02084484,-0.19218126,5248.0,6908.5,7555.5,
90.343,-0.04600966,0.14322924,10.07737,-0.03492014,0.06414499,-0.0053910568,5248.0,6908.5,7043.5,
90.457,0.016239584,0.0761916,9.97442,0.044752136,-0.096665112,0.0044680556,4736.0,7676.5,8835.5,
90.572,0.27481338,0.107316224,9.639232,-0.008806825,0.03363504,-0.0021935068,4224.0,6908.5,6787.5,
90.695,0.13355547,0.09773941,9.773307,-0.0030778944,0.0243088516,-0.043761652,4480.0,6140.5,8835.5,
90.813,0.083277224,0.06182639,9.785277,-0.00347757336,0.0011266135,-0.009920919,4736.0,5628.5,10115.5,
90.930,0.080883024,0.057037988,9.840344,-0.00081294776,0.017114366,-0.026441592,5248.0,5628.5,9859.5,
91.047,0.037787436,0.042672776,9.864286,-0.006142199,0.006589096,-0.00046150108,4992.0,6908.5,11651.5,
91.163,0.09285402,0.0761916,9.802037,-0.00067971648,-0.0032700152,-0.0060572124,4224.0,6652.5,11139.5,
91.284,0.09045982,0.0785858,9.842738,-0.001878798,0.0029918552,-0.000727963636,3968.0,6396.5,11395.5,
91.399,0.054546832,0.0761916,9.814008,-0.0017455816,0.0035247804,-0.0036590504,5248.0,6908.5,10883.5,
91.516,0.06651783,0.06661479,9.852315,-0.00067971648,-0.00273709,-0.0016605817,4480.0,6652.5,11139.5,
91.631,0.037787436,0.08576841,9.890622,-0.0014791042,-0.004202634,-0.0016605817,4224.0,7164.5,10371.5,
91.747,0.049758436,0.04746118,9.845133,0.0015852153,0.000460457068,-0.0013941191,3712.0,6908.5,10371.5,
91.872,0.013845384,0.0833742,9.835556,-0.0021452606,0.00179276984,-0.00046150108,4224.0,6652.5,10883.5,
91.989,0.018633782,0.06182639,9.852315,-0.0038772672,0.0033915452,-0.003259357,4224.0,6652.5,10371.5,
92.106,0.054546832,0.08576841,9.74697,-0.00347757336,0.0032583176,-0.008188913,3968.0,6396.5,10371.5,
92.222,0.06412363,0.04506698,9.876257,-1.3560057e-05,-0.000871852064,-0.005124594,3968.0,6396.5,11395.5,
92.339,0.052152632,0.10252782,9.799643,-0.0020120292,0.0035247804,-0.0015273513,4736.0,6652.5,10627.5,
92.464,0.10721928,0.0737974,9.811614,-0.0010794252,0.001526311,0.001004043,5248.0,6652.5,10115.5,
92.579,0.09045982,0.03309597,9.802037,-0.003344342,0.0075217187,0.00087081176,4736.0,5884.5,11395.5,
92.696,0.013845384,0.11689302,9.876257,0.0011855215,-0.01459467,-0.00339258784,3968.0,7164.5,12675.5,
92.814,0.09285402,0.109710424,9.782884,0.008246779,-0.020590074,-0.000727963636,3712.0,8188.5,13443.5,
92.932,0.07370043,-0.0004228577,9.95766,0.00624831,-0.011130661,-0.0029928944,3712.0,9724.5,13699.5,
93.053,0.09524828,0.10013361,9.881045,-0.004676655,0.008454334,0.0034022052,3200.0,9468.5,12675.5,
93.168,0.0353932384,0.054643784,9.799643,-0.007474512,0.010053109,-0.002726432,3200.0,10236.5,14467.5,
93.285,0.023422182,0.08098,9.859498,-0.0029446482,0.0031250828,-0.002726432,2432.0,11516.5,14467.5,
93.401,0.052152632,0.11689302,9.842738,0.0013187528,0.0025921612,0.0006043492,2944.0,11516.5,15491.5,
93.518,-0.096287908,0.06661479,9.936112,-0.011204988,0.013916817,0.031513996,2944.0,11516.5,16515.5,
93.641,0.03299904,0.04985538,9.83795,-0.00014679134,0.0016595423,0.0014037369,3712.0,11260.5,17027.5,
93.757,0.09045982,0.057037988,9.806826,-0.0053428112,0.008587565,-0.000727963636,4480.0,11516.5,17027.5,
93.874,0.24368876,0.025913366,9.840344,-0.0021452606,-0.009798348,0.036710016,3968.0,11004.5,17283.5,
93.990,0.044970036,0.08098,9.785277,-0.00347757336,0.0019260049,0.00073758052,4736.0,11772.5,17283.5,
94.108,-0.017279208,0.042672776,9.86668,-0.00347757336,0.0115186536,-0.0021935068,4736.0,11516.5,17539.5,
94.233,0.009056985,0.09055681,9.780489,-0.0060089676,0.004723858,-0.0024599694,4480.0,11260.5,17795.5,
94.349,0.013845384,0.08816261,9.878652,-0.0004132688,0.0008601546,-0.0024599694,4224.0,11260.5,17283.5,
94.465,-0.00770241,0.06422059,9.902594,-0.002811417,-0.007799879,-0.0012608878,4480.0,11772.5,17283.5,
94.582,0.02821058,0.0761916,9.766124,-0.00014679134,6.0766936e-05,0.00087081176,3712.0,11516.5,17027.5,
94.698,0.05933523,0.0761916,9.797249,-0.0038772672,0.0019260049,-0.0016605817,4480.0,11772.5,18051.5,
94.822,0.042575836,-0.012393862,9.814008,0.0005193651,-0.00313678,-0.0015273513,4992.0,11004.5,17539.5,
94.938,0.06651783,0.06182639,9.847527,0.0010522902,0.00059369208,0.001004043,3968.0,11516.5,17795.5,
95.054,0.040181636,0.059432188,9.806826,0.0017184466,-0.0039361716,-0.0003282698,3968.0,11772.5,17539.5,
95.171,0.040181636,0.06182639,9.876257,-0.0005464852,-0.0052684844,-0.002726432,4224.0,11004.5,16771.5,
95.287,0.0042685868,0.13125824,10.067793,-0.001878798,-0.012729432,-0.0011276575,3712.0,11004.5,16515.5,
95.410,0.049758436,0.10492202,9.821191,-0.0029446482,-0.0019377023,-0.0020602756,3968.0,11260.5,16771.5,
95.529,0.13355547,0.14083504,9.950478,-0.00520958,0.008187875,-0.0040587444,3968.0,11516.5,17795.5,
95.645,0.10003668,0.095345216,9.869075,-0.0032111108,-0.0028703212,0.0035354364,4224.0,10492.5,16515.5,
95.763,0.047364236,0.042672776,9.802037,-0.0017455816,-0.0020709336,-0.0021935068,4224.0,11260.5,17027.5,
95.880,0.07370043,0.030701768,9.833161,0.00358368436,-7.246435e-05,-0.0012608878,3712.0,10748.5,16771.5,
96.003,0.06412363,0.03549017,9.823585,0.0005193651,0.00019399822,-0.0015273513,4736.0,10492.5,16771.5,
96.120,0.056941032,0.0714032,9.849921,-0.0017455816,-0.000738620736,0.0015369672,4480.0,11004.5,17539.5,
96.237,0.03299904,0.06900899,9.840344,0.000119671224,0.0013930798,-0.0037922818,4224.0,11260.5,16515.5,
96.356,0.02821058,0.0714032,9.809219,-0.00028002262,0.0024589264,-0.0015273513,4224.0,12284.5,17027.5,
96.472,0.0353932384,0.0714032,9.86668,-0.0060089676,-0.0059346408,-0.0031261258,3200.0,11516.5,17027.5,
96.595,0.040181636,0.09055681,9.878652,-0.003344342,0.00059369208,-0.0001950385,3968.0,11516.5,17539.5,
96.711,0.0258163816,0.08816261,9.833161,-0.0016123354,-0.0011383183,0.0016701994,4224.0,11260.5,17027.5,
96.830,0.052152632,0.05224958,9.821191,-0.0053428112,-0.0015380084,-0.000727963636,3200.0,11772.5,16259.5,
96.948,0.05933523,0.06422059,9.821191,-0.0016123354,-0.0012715459,0.002336355,3968.0,12028.5,18051.5,
97.064,0.040181636,0.04985538,9.778095,0.0021181404,0.00059369208,-0.005124594,3968.0,11516.5,16771.5,
97.186,0.07130623,0.06900899,9.816402,0.00185167792,-0.000738620736,0.0031357436,4480.0,12028.5,17539.5,
97.304,0.080883024,0.0714032,9.885834,0.0005193651,0.003924474,0.000337886632,3712.0,11004.5,17283.5,
97.420,0.042575836,0.057037988,9.790066,-0.0004132688,0.0041909368,-0.0021935068,4224.0,11004.5,15747.5,
97.537,0.049758436,0.037884372,9.897805,-0.0032111108,0.0011266135,-0.0025932006,4480.0,11772.5,17539.5,
97.655,0.03060478,0.06182639,9.830768,-0.00067971648,0.0031250828,0.0015369672,3712.0,11516.5,16771.5,
97.777,0.05933523,0.0737974,9.842738,-0.00094617908,-0.0028703212,-0.0025932006,3712.0,11516.5,17539.5,
97.893,0.02821058,0.057037988,9.794854,-0.006541893,0.0011266135,-0.0003282698,4224.0,10748.5,16515.5,
98.008,0.052152632,0.09055681,9.804431,-0.00094617908,0.00059369208,-0.0019270442,3456.0,10492.5,16003.5,
98.125,-0.0005198121,0.092951016,9.83795,0.0002528876,-0.00380293668,0.00087081176,3456.0,11516.5,16259.5,
98.242,0.06651783,0.042672776,9.852315,0.000119671224,0.0019260049,-0.0029928944,3712.0,12028.5,17539.5,
98.368,0.06172943,0.057037988,9.830768,-0.0025449544,0.0013930798,0.00087081176,3968.0,11004.5,18307.5,
98.485,0.009056985,0.0833742,9.780489,-0.00094617908,0.0020592324,-0.0001950385,3200.0,11004.5,18051.5,
98.601,0.013845384,0.06661479,9.775701,0.0017184466,-0.005401712,-0.0021935068,3456.0,10748.5,16515.5,
98.717,0.049758436,0.0737974,9.821191,-0.0012126416,0.0008601546,0.000337886632,4224.0,11516.5,17027.5,
98.846,0.06891203,0.042672776,9.871469,-0.0040104984,0.0024589264,0.00020465534,3968.0,11772.5,18051.5,
98.963,0.10003668,0.092951016,9.85471,-0.0057424904,0.008321103,0.0031357436,3200.0,11004.5,17539.5,
99.079,0.10721928,0.114498824,9.873863,-0.0016123354,0.0043241644,-0.0005947314,3456.0,11516.5,17539.5,
99.197,0.06172943,0.06900899,9.888228,-0.0026781856,0.0021924674,-0.002726432,3968.0,11260.5,18051.5,
99.312,0.044970036,0.057037988,9.861892,-0.0026781856,-0.0030035526,-0.0029928944,4480.0,11004.5,17027.5,
99.435,0.06172943,0.04746118,9.773307,-0.0058757364,0.0029918552,-0.0001950385,4224.0,11004.5,16259.5,
99.551,0.044970036,0.08576841,9.888228,-0.0032111108,-0.0022041648,-0.0015273513,3456.0,11260.5,17539.5,
99.668,0.0042685868,0.011548154,9.849921,-0.0022784918,0.00072692332,-0.0012608878,4992.0,10748.5,17539.5,
99.786,0.037787436,0.023519162,9.821191,-1.3560057e-05,-0.000738620736,-0.000727963636,3968.0,11004.5,18819.5,
99.906,0.023422182,0.0785858,9.833161,-0.00520958,0.0076549464,-0.0016605817,3968.0,10748.5,17283.5,
100.027,0.021027982,0.0761916,9.840344,0.0022513718,-0.000871852064,0.0006043492,3712.0,11260.5,17539.5,
100.144,0.085671424,0.0833742,9.840344,0.0038501472,0.0036580116,-0.0020602756,3712.0,10492.5,16515.5,
100.260,0.056941032,0.095345216,9.768518,0.0019849092,-0.000738620736,-0.0016605817,3456.0,10748.5,17283.5,
100.378,-0.0005198121,0.08098,9.842738,0.000785827636,-0.0011383183,-0.0015273513,3712.0,11260.5,17539.5,
100.496,0.044970036,0.011548154,9.842738,0.0003861338,-0.000871852064,-0.0015273513,3712.0,11260.5,18051.5,
100.620,0.049758436,0.0833742,9.842738,-0.004276961,-0.0034032464,-0.0015273513,3712.0,11004.5,18307.5,
100.736,0.044970036,0.06182639,9.768518,0.0021181404,0.008454334,-0.0015273513,4224.0,12028.5,17795.5,
100.852,0.03060478,0.04985538,9.816402,0.0026510656,0.0019260049,-0.0016605817,4224.0,11004.5,17027.5,
100.970,0.040181636,0.06422059,9.773307,-1.3560057e-05,-0.0019377023,-0.0043252064,3968.0,11516.5,17539.5,
101.089,0.037787436,0.08098,9.830768,-0.00414373,0.0011266135,-0.002726432,4480.0,11004.5,17539.5,
101.209,0.05933523,0.06661479,9.821191,-0.0004132688,0.000460457068,-0.00046150108,3968.0,11004.5,17795.5,
101.326,0.044970036,0.09055681,9.835556,-0.0064086468,0.0008601546,-0.0009944253,4992.0,11516.5,18051.5,
101.442,0.047364236,0.037884372,9.821191,-0.0032111108,-0.000205695632,-0.000727963636,3968.0,10748.5,17539.5,
101.562,0.023422182,0.059432188,9.770912,-0.0004132688,-0.0043358652,-6.180722e-05,3712.0,11260.5,18307.5,
101.679,0.047364236,0.06182639,9.825979,-0.0057424904,0.0043241644,-0.0012608878,3968.0,11772.5,17283.5,
101.802,0.049758436,0.04746118,9.754153,-0.0014791042,-0.00180447468,-0.0009944253,4224.0,12028.5,18307.5,
101.920,0.09764248,0.08576841,9.849921,-0.002811417,0.00072692332,-0.0020602756,3712.0,11260.5,17795.5,
102.036,0.009056985,0.0785858,9.88344,-0.0017455816,-0.000205695632,-0.0003282698,3968.0,11260.5,17027.5,
102.152,0.06172943,0.037884372,9.797249,-0.00028002262,0.0045906304,-0.000727963636,4224.0,11772.5,17027.5,
102.271,0.052152632,0.054643784,9.775701,-0.0022784918,0.0013930798,-0.0008611949,3968.0,11516.5,18307.5,
102.394,0.006662786,0.04985538,9.847527,-0.0025449544,0.0003272295,0.0006043492,3712.0,11260.5,18563.5,
102.509,0.042575836,0.054643784,9.725423,0.0019849092,-0.0063343348,0.000337886632,3712.0,11516.5,18051.5,
102.627,0.044970036,0.059432188,9.799643,0.0017184466,-0.0039361716,-0.0045916692,4224.0,11772.5,18307.5,
102.745,0.06891203,0.08816261,9.818796,0.0011855215,-0.00273709,0.00020465534,3968.0,11004.5,18051.5,
102.860,0.07130623,0.0833742,9.847527,0.00065259636,-0.00380293668,-0.000727963636,3968.0,11260.5,18563.5,
102.983,0.03299904,0.06900899,9.878652,-0.001878798,-0.004469093,0.0012705056,3456.0,11260.5,18307.5,
103.098,0.056941032,0.0833742,9.828373,-0.0038772672,-0.0003389269,-0.0012608878,3712.0,11260.5,17795.5,
103.214,0.042575836,0.011548154,9.825979,-0.00014679134,0.0008601546,0.00047111884,3968.0,11260.5,17539.5,
103.332,0.083277224,0.037884372,9.847527,0.0019849092,0.0049903208,0.0006043492,3968.0,11004.5,17027.5,
103.455,0.06172943,0.059432188,9.754153,-0.0014791042,0.0036580116,-0.00046150108,3456.0,10748.5,17795.5,
103.572,0.018633782,0.09055681,9.88344,0.0017184466,-0.003669709,0.00020465534,3968.0,11516.5,18307.5,
103.689,0.03060478,0.057037988,9.835556,-1.3560057e-05,0.0035247804,-0.0011276575,3968.0,11516.5,17795.5,
103.808,0.044970036,0.06422059,9.885834,-1.3560057e-05,-0.0015380084,-0.000727963636,4224.0,11004.5,17539.5,
103.926,0.080883024,0.04506698,9.821191,-0.00347757336,6.0766936e-05,-0.0019270442,4480.0,11004.5,18051.5,
104.050,0.016239584,0.04506698,9.83795,-0.001878798,-0.0019377023,-0.0009944253,3968.0,11260.5,17795.5,
104.166,0.040181636,0.0833742,9.852315,-0.0016123354,-0.0028703212,0.002336355,3712.0,10748.5,17795.5,
104.282,0.049758436,0.057037988,9.86668,-0.0025449544,-0.0028703212,-0.0035258192,3456.0,11516.5,17795.5,
104.399,0.085671424,0.04506698,9.842738,0.0021181404,0.0036580116,-0.0015273513,3712.0,10492.5,17027.5,
104.516,0.040181636,0.06661479,9.876257,-0.003344342,0.005656477,0.00286928,3968.0,11260.5,19075.5,
104.636,0.056941032,0.023519162,9.852315,0.0027842968,-0.008466035,-0.0036590504,3968.0,11260.5,18307.5,
104.753,0.03060478,0.04746118,9.840344,-0.00067971648,0.0011266135,-0.002326738,3456.0,11004.5,17283.5,
104.869,0.06172943,0.06661479,9.787672,-0.00028002262,0.000460457068,7.142406e-05,2944.0,10492.5,18819.5,
104.986,0.040181636,0.08816261,9.842738,-0.0045434236,0.0003272295,-0.003259357,4224.0,10748.5,18307.5,
105.102,0.013845384,0.04506698,9.804431,-0.0013458729,-0.0034032464,-0.0019270442,4224.0,10748.5,17283.5,
105.225,0.054546832,0.0714032,9.794854,-0.0030778944,0.006056171,0.0035354364,4736.0,11004.5,17539.5,
105.340,0.052152632,0.06422059,9.852315,-0.0012126416,6.0766936e-05,0.0006043492,3968.0,11260.5,18051.5,
105.456,0.042575836,0.059432188,9.806826,-0.0049431176,-0.000205695632,0.00047111884,3456.0,10492.5,18307.5,
105.575,0.07130623,0.009153955,9.821191,0.000785827636,0.0024589264,0.00020465534,3968.0,11772.5,18051.5,
105.693,0.049758436,0.06182639,9.845133,-0.0004132688,0.004857093,-0.0052578252,3712.0,11516.5,18307.5,
105.815,0.040181636,0.0714032,9.835556,-0.0013458729,-0.0006053895,-0.0047249004,4480.0,11260.5,18819.5,
105.931,0.013845384,0.08098,9.840344,0.0010522902,0.0003272295,0.00020465534,4224.0,11260.5,18307.5,
106.047,0.040181636,0.06661479,9.904987,-0.0026781856,-0.000738620736,7.142406e-05,3968.0,12540.5,18563.5,
106.165,0.023422182,0.059432188,9.816402,-0.0014791042,0.00059369208,-0.0008611949,3200.0,11260.5,17283.5,
106.283,0.03060478,0.04985538,9.864286,-0.00347757336,0.0023256988,-0.00046150108,3456.0,11260.5,17539.5,
106.406,0.049758436,0.04746118,9.799643,-0.0005464852,0.0027253888,-0.0011276575,3712.0,11260.5,17795.5,
106.523,0.10003668,0.0737974,9.818796,-0.0013458729,-0.005401712,-0.0028596632,3712.0,11516.5,17539.5,
106.638,0.06172943,0.06182639,9.818796,0.004782766,-0.0063343348,-0.0001950385,3968.0,11004.5,16259.5,
106.753,0.10961348,0.0761916,9.845133,0.0010522902,0.0044573956,-0.0015273513,3968.0,11004.5,17027.5,
106.870,0.088065624,0.042672776,9.871469,-0.0049431176,0.01551559,-6.180722e-05,3712.0,11004.5,18051.5,
106.992,0.006662786,0.04506698,9.821191,0.0069144664,-0.0241873184,-0.0024599694,4224.0,10236.5,18563.5,
107.110,0.006662786,0.06182639,9.845133,-0.004676655,0.0057897084,-0.0016605817,4224.0,10492.5,18563.5,
107.226,0.06172943,0.10492202,9.876257,-0.002411738,-0.0016712397,-0.001793813,3712.0,10236.5,17539.5,
107.342,0.03299904,0.059432188,9.802037,0.0025178344,-0.004469093,-0.0011276575,5248.0,10236.5,19331.5,
107.459,0.0353932384,0.09055681,9.821191,-0.0012126416,0.004723858,-0.0013941191,5504.0,9468.5,19843.5,
107.582,0.040181636,0.0761916,9.773307,-0.0021452606,-0.0012715459,-0.0048581316,4736.0,10236.5,19843.5,
107.698,0.006662786,0.0737974,9.818796,-0.00347757336,-0.00180447468,-0.0013941191,4736.0,9724.5,20099.5,
107.815,0.013845384,0.04746118,9.799643,-0.00014679134,0.0008601546,-0.003259357,6016.0,9980.5,20099.5,
107.931,0.0353932384,0.057037988,9.857103,0.000919044,-0.000871852064,-0.0025932006,5248.0,10236.5,19331.5,
108.050,0.0353932384,0.059432188,9.797249,-0.0004132688,0.00059369208,-0.0024599694,5504.0,10492.5,19843.5,
108.175,0.083277224,0.059432188,9.871469,-0.004276961,-0.0012715459,-0.000727963636,4992.0,10236.5,19075.5,
108.294,0.042575836,0.030701768,9.799643,-0.00014679134,0.0008601546,-0.0003282698,5504.0,9980.5,18819.5,
108.410,0.07130623,0.0785858,9.864286,0.0003861338,0.0013930798,0.0030025114,5248.0,10236.5,19587.5,
108.525,0.07848883,0.0833742,9.895411,-0.0050763636,0.008187875,0.000337886632,5248.0,9724.5,18563.5,
108.647,0.0042685868,0.12168144,9.83795,-0.002411738,0.0076549464,-6.180722e-05,5504.0,10492.5,19331.5,
108.763,0.040181636,0.112104624,9.852315,-0.00094617908,-0.0006053895,-0.0049913632,5248.0,10236.5,18307.5,
108.882,0.11440188,0.054643784,9.809219,-0.0045434236,-0.0026038588,-0.0012608878,5504.0,10236.5,19331.5,
109.000,0.040181636,0.03309597,9.86668,-0.002811417,0.0025921612,-0.0016605817,6272.0,10492.5,19587.5,
109.116,0.03060478,0.04506698,9.833161,-0.00774095936,-0.000738620736,-0.0001950385,6272.0,10748.5,20355.5,
109.240,0.06651783,0.05224958,9.876257,-0.0005464852,-0.00380293668,-0.0008611949,5504.0,10492.5,18819.5,
109.356,0.0018743873,0.059432188,9.825979,-0.00520958,0.0011266135,-6.180722e-05,5504.0,10492.5,19075.5,
109.474,0.06172943,0.0714032,9.787672,0.0031839908,0.0009933859,-0.002326738,5504.0,10492.5,19843.5,
109.589,0.05933523,0.05224958,9.821191,-0.0049431176,0.0035247804,-0.002726432,5504.0,10748.5,20099.5,
109.706,0.018633782,0.04985538,9.842738,-0.003344342,0.00059369208,-0.0043252064,5504.0,10748.5,20099.5,
109.829,0.056941032,0.0761916,9.758942,-0.0030778944,0.0019260049,0.0015369672,6016.0,10236.5,19331.5,
109.947,-0.017279208,0.06422059,9.794854,-0.0012126416,-7.246435e-05,0.0011372734,6528.0,10748.5,19843.5,
110.063,0.05933523,0.08098,9.842738,-0.006142199,0.00179276984,-0.002726432,6528.0,10492.5,20099.5,
110.178,0.016239584,0.040278572,9.85471,-0.0032111108,-0.0006053895,-0.001793813,5504.0,9980.5,19331.5,
110.300,0.023422182,0.023519162,9.818796,-0.0049431176,0.00072692332,0.00020465534,5760.0,9980.5,19331.5,
110.424,0.011451185,0.08098,9.833161,-0.0044102072,-0.006467562,-0.0029928944,6272.0,8700.5,19587.5,
110.540,0.06172943,0.12407564,9.86668,0.0027842968,-0.00273709,0.00020465534,6528.0,8700.5,19075.5,
110.657,0.088065624,0.054643784,9.907382,-0.00361080468,-0.0067340248,-0.0020602756,6016.0,8444.5,20355.5,
110.775,0.1598917,0.16717127,9.742182,0.0039833636,-0.0089989568,-0.0028596632,6272.0,8444.5,21379.5,
110.892,-0.52963836,-0.8767007,9.95766,0.00518246,-0.011263888,0.01272839,7296.0,8444.5,21379.5,
111.012,-0.9486237,-0.9700746,9.943295,-0.044379576,-0.01606021,0.82064264,6528.0,4092.5,23427.5,
111.127,0.70098132,0.883037536,9.162786,-0.06289871,0.02084484,0.8171786,3712.0,-5635.5,29826.5,
111.242,2.3146732,1.6707299,9.873863,-0.04424633,0.012451272,0.7427023,-2432.0,-13060.5,-27261.5,
111.358,-1.4585886,0.171959668,11.829926,-0.039583236,-0.078279208,0.59574824,-7808.0,-15620.5,-30077.5,
111.477,1.5102215,0.3443422,9.83795,-0.010005906,0.0016595423,0.122910624,-11136.0,-16132.5,32130.5,
111.601,-0.1345951,-0.25660244,9.890622,0.0058486164,-0.011796817,0.024585974,-8576.0,-15108.5,30082.5,
111.719,-0.9390469,-0.25420824,9.761335,0.025167152,-0.008199573,-0.412945416,-4736.0,-11780.5,29314.5,
111.836,-0.18966174,-0.0076054632,10.012727,-0.0014791042,-0.009798348,0.14142976,-2688.0,-9732.5,29826.5,
111.954,0.09524828,0.04506698,9.799643,0.008380011,-0.015793752,0.0026028176,-2432.0,-8708.5,27010.5,
112.069,-0.07474005,0.109710424,9.794854,0.00744739168,-0.022855006,-0.0019270442,-2688.0,-8196.5,26754.5,
112.209,0.016239584,0.0785858,9.768518,-0.0044102072,0.010719266,-0.0043252064,-3712.0,-8196.5,25986.5,
112.325,0.121584472,0.08816261,9.775701,-0.008940056,0.022310384,-0.00339258784,-3712.0,-7940.5,26242.5,
112.443,-0.15374875,0.054643784,10.017515,-0.00094617908,0.025108238,-0.0011276575,-3456.0,-8196.5,26242.5,
112.562,0.013845384,0.06661479,9.818796,-0.0021452606,0.0040577016,-0.0028596632,-3712.0,-7940.5,26242.5,
112.678,0.006662786,0.11928723,9.782884,-0.002811417,0.017913754,-0.0009944253,-4736.0,-7940.5,27522.5,
112.800,-0.08910525,0.01633656,9.9672368,0.0073141452,-0.016992834,-0.001793813,-3712.0,-7684.5,28546.5,
112.916,0.0018743873,0.040278572,9.790066,0.000785827636,0.0011266135,0.00087081176,-4480.0,-7940.5,29570.5,
113.036,-0.019673408,0.006759748,9.782884,0.001451984,-0.0010050833,-0.000727963636,-5504.0,-7428.5,30594.5,
113.153,0.054546832,0.0714032,9.749365,0.0059818328,-0.00180447468,-0.0013941191,-6272.0,-7684.5,30594.5,
113.270,0.080883024,0.04506698,9.782884,-0.00094617908,-0.005668178,-0.001793813,-5504.0,-7428.5,-30845.5,
113.391,-0.005308211,0.0737974,9.988785,0.00065259636,-0.0034032464,0.000337886632,-5760.0,-8452.5,-30845.5,
113.508,-0.024461806,0.0737974,9.914564,0.0045163036,-0.017525758,-0.0009944253,-6528.0,-7172.5,-29821.5,
113.624,0.040181636,0.09055681,9.931324,-0.00361080468,0.009253722,-0.00046150108,-6016.0,-8196.5,-29309.5,
113.741,0.044970036,0.06661479,9.835556,-0.00094617908,-0.0068672598,-0.004458438,-5248.0,-7428.5,-29565.5,
113.859,0.042575836,0.0833742,9.787672,0.0030507594,-0.0071337184,-0.00339258784,-4736.0,-7172.5,-28797.5,
113.982,0.09045982,0.06900899,9.828373,-0.0022784918,0.0057897084,-0.0048581316,-4224.0,-6148.5,-30077.5,
114.098,0.0353932384,0.054643784,9.933718,0.009046167,-0.010198042,0.00193666116,-3968.0,-6148.5,-32637.5,
114.216,0.006662786,0.0019713492,9.857103,0.0015852153,0.0016595423,-0.0029928944,-3200.0,-5636.5,-31869.5,
114.333,0.044970036,0.040278572,9.758942,-0.0004132688,0.0027253888,-0.002726432,-3200.0,-6148.5,-32381.5,
114.455,-0.012490809,0.057037988,9.85471,-0.0016123354,0.0013930798,-0.0003282698,-3712.0,-6404.5,-31869.5,
114.572,0.006662786,0.054643784,9.873863,-0.004676655,-0.0023373962,-0.005124594,-3456.0,-6148.5,-31869.5,
114.688,0.02821058,0.0737974,9.818796,-0.00933975,0.00805464,-0.0021935068,-3456.0,-6660.5,-31869.5,
114.800,0.07370043,0.04985538,9.833161,-0.00081294776,0.0025921612,-0.0029928944,-3712.0,-6404.5,-30845.5,
114.916,0.0258163816,0.04985538,9.873863,-0.008140668,-0.00380293668,-0.0035258192,-3712.0,-6404.5,-31101.5,
115.040,0.023422182,0.0714032,9.802037,0.0005193651,-7.246435e-05,-0.005657519,-4224.0,-6660.5,-30845.5,
115.155,0.049758436,0.0714032,9.816402,-0.0044102072,0.0053900144,-0.002726432,-4480.0,-6916.5,-30589.5,
115.271,0.018633782,0.06661479,9.816402,-0.0037440508,0.0019260049,-0.0016605817,-3968.0,-6148.5,-30845.5,
115.390,0.049758436,0.04985538,9.816402,0.00065259636,-0.004202634,-0.0025932006,-3456.0,-5636.5,-31869.5,
115.506,0.0018743873,0.054643784,9.830768,-0.00028002262,0.00179276984,-6.180722e-05,-4224.0,-6404.5,-31869.5,
115.632,0.0018743873,0.059432188,9.780489,-0.0025449544,-0.000871852064,-0.00046150108,-3456.0,-5892.5,-31357.5,
115.752,-0.0005198121,0.09055681,9.828373,-0.0025449544,-0.0014047772,-0.0001950385,-3712.0,-6660.5,-31869.5,
115.868,0.03060478,0.04746118,9.86668,-0.0030778944,0.0029918552,-0.0001950385,-3712.0,-6148.5,-30845.5,
115.983,0.0018743873,0.114498824,9.809219,0.001451984,0.0023256988,-0.005524288,-3200.0,-6148.5,-31357.5,
116.102,0.011451185,0.04985538,9.835556,-0.0026781856,0.001526311,0.00020465534,-3456.0,-6148.5,-31101.5,
116.225,0.03299904,0.06182639,9.876257,-0.0032111108,0.0059229432,-0.0008611949,-3712.0,-6404.5,-30845.5,
116.340,0.080883024,0.095345216,9.845133,-0.0013458729,-0.000871852064,-0.0021935068,-3968.0,-6660.5,-31357.5,
116.458,0.042575836,0.06661479,9.821191,-0.0017455816,0.0053900144,-0.0025932006,-3456.0,-6916.5,-32381.5,
116.575,0.009056985,0.10492202,9.773307,-0.00028002262,-0.0010050833,-0.0016605817,-3712.0,-6660.5,-31869.5,
116.699,0.037787436,0.0714032,9.797249,-0.0020120292,0.0019260049,-0.0011276575,-3968.0,-6404.5,-30077.5,
116.817,0.052152632,0.0833742,9.816402,0.0027842968,0.0033915452,-0.0048581316,-3456.0,-6404.5,-31357.5,
116.933,-0.0005198121,0.042672776,9.873863,-0.0016123354,-0.000871852064,-0.0040587444,-3200.0,-6660.5,-29821.5,
117.051,0.047364236,0.042672776,9.849921,-0.0021452606,0.008987259,-0.003259357,-3968.0,-6148.5,-31357.5,
117.167,0.052152632,0.06422059,9.825979,0.0026510656,0.0063226336,-0.0035258192,-4224.0,-6404.5,-30333.5,
117.290,0.016239584,0.06661479,9.88344,-0.0026781856,-0.0012715459,-6.180722e-05,-4480.0,-6404.5,-30845.5,
117.406,0.047364236,0.04985538,9.79246,-0.0020120292,-0.0003389269,0.0024695872,-4480.0,-6916.5,-29053.5,
117.522,0.054546832,0.0833742,9.754153,0.0017184466,-0.004069403,-6.180722e-05,-4992.0,-6916.5,-27773.5,
117.637,0.0258163816,0.0737974,9.797249,-0.0005464852,-0.007533416,-0.0016605817,-5248.0,-6660.5,-28285.5,
117.753,0.021027982,0.04985538,9.895411,0.00464952,-0.0083328,-0.001793813,-5248.0,-6148.5,-27517.5,
117.872,0.13116127,0.0785858,9.787672,-0.00361080468,-0.012063276,-0.0008611949,-5248.0,-5124.5,-28029.5,
117.988,-0.32852542,-0.40025456,9.605712,-0.0016123354,0.014849434,0.024452742,-6272.0,-4868.5,-27005.5,
118.106,0.24608296,0.37307262,9.770912,-0.009073272,0.010852497,0.11185244,-7040.0,-4612.5,-27773.5,
118.224,-0.014885008,0.08816261,9.897805,-0.0014791042,0.0023256988,-0.0025932006,-6272.0,-5380.5,-27517.5,
118.342,0.054546832,0.10252782,9.859498,-0.0010794252,0.0075217187,-0.0057907504,-6784.0,-5636.5,-26493.5,
118.466,0.083277224,0.09773941,9.876257,0.00518246,-0.0003389269,0.0014037369,-6016.0,-5636.5,-26493.5,
118.581,0.03299904,0.06182639,9.790066,-0.0017455816,0.0031250828,0.00047111884,-7040.0,-6148.5,-27517.5,
118.697,0.009056985,0.006759748,9.818796,-0.0014791042,-0.0019377023,-0.0005947314,-6528.0,-5892.5,-27005.5,
118.815,0.085671424,0.03309597,9.818796,-0.003344342,-0.0016712397,-0.0049913632,-6784.0,-5636.5,-27005.5,
118.931,0.06412363,0.04506698,9.890622,-0.0014791042,0.0024589264,0.00047111884,-6528.0,-5636.5,-27261.5,
119.053,0.06412363,0.059432188,9.859498,-0.0050763636,-7.246435e-05,0.0012705056,-6528.0,-5636.5,-26493.5,
119.170,0.06172943,0.09055681,9.885834,-0.0045434236,0.0028586238,7.142406e-05,-6272.0,-5380.5,-27261.5,
119.286,0.085671424,0.12886404,9.787672,-0.0017455816,0.00019399822,-0.0008611949,-6272.0,-6404.5,-27773.5,
119.403,0.06172943,0.042672776,9.861892,-0.0044102072,-0.0022041648,-0.0012608878,-6528.0,-5636.5,-25725.5,
119.520,0.0042685868,0.09055681,9.821191,-0.0020120292,0.0011266135,-0.002326738,-6272.0,-5892.5,-25725.5,
119.642,0.009056985,0.09773941,9.840344,-0.00347757336,-0.0006053895,-0.0048581316,-6784.0,-6148.5,-28285.5,
119.758,0.049758436,0.03549017,9.828373,-0.0044102072,6.0766936e-05,-0.0012608878,-6784.0,-6404.5,-26749.5,
119.875,0.047364236,0.09773941,9.835556,-0.0017455816,0.0019260049,-0.0008611949,-6528.0,-5892.5,-27517.5,
119.993,0.054546832,0.08576841,9.869075,-0.0005464852,0.0008601546,-0.002326738,-6528.0,-5636.5,-26493.5,
120.120,0.054546832,0.10013361,9.845133,0.0013187528,0.0028586238,-0.0024599694,-6528.0,-5892.5,-26493.5,
120.238,0.044970036,0.08098,9.79246,-0.0014791042,-0.006467562,0.00073758052,-6272.0,-5380.5,-25981.5,
120.353,0.06651783,0.08816261,9.770912,-0.00347757336,0.0035247804,-0.002326738,-6784.0,-5636.5,-26749.5,
120.471,0.05933523,0.0714032,9.799643,-1.3560057e-05,-0.0019377023,-0.0043252064,-6272.0,-5380.5,-26749.5,
120.589,0.040181636,0.10013361,9.828373,0.0015852153,0.0023256988,7.142406e-05,-6272.0,-5636.5,-25981.5,
120.713,0.07609463,0.054643784,9.83795,-0.0062754304,-0.0016712397,-0.0011276575,-6016.0,-5636.5,-25981.5,
120.830,0.054546832,0.054643784,9.828373,-0.00094617908,-7.246435e-05,-0.0001950385,-6784.0,-5636.5,-25981.5,
120.946,0.0353932384,0.057037988,9.785277,0.000919044,0.0024589264,-0.0016605817,-6272.0,-5380.5,-26237.5,
121.064,0.07609463,0.08576841,9.811614,-0.00347757336,0.00019399822,-0.0003282698,-6784.0,-5380.5,-27005.5,
121.187,0.080883024,0.059432188,9.869075,-0.0017455816,-0.00313678,-0.0003282698,-6784.0,-5380.5,-27261.5,
121.309,0.056941032,0.06182639,9.799643,-0.0012126416,0.0003272295,0.00087081176,-6784.0,-5892.5,-27005.5,
121.425,0.056941032,0.114498824,9.814008,-0.00067971648,0.0012598485,0.0011372734,-6784.0,-5892.5,-25981.5,
121.544,0.049758436,0.10252782,9.842738,0.0002528876,0.0013930798,-0.004191975,-6272.0,-5636.5,-26493.5,
121.661,0.052152632,0.09055681,9.871469,-0.0017455816,-7.246435e-05,-0.0011276575,-6784.0,-5636.5,-26493.5,
121.777,0.06891203,0.092951016,9.785277,-0.00081294776,0.004723858,-0.003259357,-6528.0,-5892.5,-26237.5,
121.899,0.052152632,0.0714032,9.825979,-0.0010794252,0.0031250828,-0.0013941191,-6784.0,-5892.5,-27773.5,
122.015,0.037787436,0.08816261,9.852315,0.000119671224,-0.00273709,0.00073758052,-7040.0,-5636.5,-27773.5,
122.132,0.06412363,0.057037988,9.828373,-0.003344342,-0.0015380084,-0.0028596632,-6016.0,-5380.5,-26493.5,
122.248,0.09524828,0.06661479,9.861892,0.0003861338,0.0027253888,-0.004191975,-6016.0,-5380.5,-26493.5,
122.363,0.06651783,0.0737974,9.864286,0.000119671224,-0.0022041648,-0.0025932006,-6272.0,-5892.5,-26749.5,
122.485,0.0353932384,0.08816261,9.814008,0.0002528876,0.0023256988,-0.0013941191,-6016.0,-5636.5,-27005.5,
122.602,0.056941032,0.0737974,9.85471,-0.00014679134,-0.0010050833,-0.0024599694,-6016.0,-5892.5,-26493.5,
122.718,0.042575836,0.04985538,9.833161,-0.001878798,-0.0010050833,-0.0028596632,-7040.0,-6148.5,-26493.5,
122.834,0.042575836,0.042672776,9.840344,-0.0022784918,0.00019399822,-0.005657519,-6528.0,-5892.5,-28029.5,
122.957,0.06172943,0.11689302,9.828373,-0.005609274,-0.0006053895,-0.0019270442,-6528.0,-6404.5,-26749.5,
123.073,0.0353932384,0.042672776,9.811614,-0.0038772672,-0.0024706236,-0.0035258192,-6528.0,-5636.5,-27261.5,
123.192,0.054546832,0.0785858,9.770912,-0.0013458729,-0.000738620736,-0.00046150108,-6784.0,-5892.5,-26493.5,
123.309,0.07609463,0.112104624,9.895411,-0.001878798,0.00072692332,0.00087081176,-6528.0,-5636.5,-26493.5,
123.426,0.10243088,0.0761916,9.852315,-0.00094617908,-0.00273709,-0.0011276575,-6784.0,-6148.5,-25981.5,
123.547,0.042575836,0.0737974,9.83795,-0.0005464852,-0.000205695632,-0.0001950385,-6528.0,-6148.5,-25725.5,
123.663,0.047364236,0.10252782,9.86668,-0.002811417,6.0766936e-05,-0.0005947314,-6272.0,-5380.5,-26749.5,
123.779,0.02821058,0.09773941,9.816402,-0.0013458729,-0.0024706236,-0.000727963636,-6272.0,-5892.5,-27005.5,
123.897,0.03060478,0.06182639,9.821191,-0.0013458729,-0.0010050833,0.0026028176,-6528.0,-5892.5,-27005.5,
124.014,0.080883024,0.06182639,9.859498,-0.004276961,0.003924474,-0.0036590504,-6272.0,-6148.5,-26493.5,
124.135,0.06172943,0.05224958,9.842738,0.0022513718,-0.0019377023,-0.0011276575,-6272.0,-5892.5,-27517.5,
124.253,0.03060478,0.08576841,9.825979,0.0003861338,0.00059369208,-0.003259357,-6528.0,-6404.5,-27261.5,
124.369,0.049758436,0.0737974,9.876257,-0.0016123354,-0.0020709336,-0.0035258192,-6528.0,-5892.5,-26237.5,
124.485,0.06412363,0.0714032,9.825979,-0.002411738,-0.000738620736,0.000337886632,-6016.0,-6148.5,-28029.5,
124.602,0.047364236,0.06422059,9.873863,-0.0020120292,0.0025921612,-0.0015273513,-6272.0,-5892.5,-26493.5,
124.725,0.040181636,0.057037988,9.814008,0.000785827636,-0.000871852064,-0.0008611949,-6016.0,-6404.5,-26749.5,
124.844,0.07130623,0.013942353,9.799643,0.0021181404,-0.0003389269,0.0027360496,-6528.0,-6148.5,-26493.5,
124.961,0.0353932384,0.092951016,9.835556,-0.0029446482,0.00072692332,-0.0025932006,-6784.0,-5892.5,-27517.5,
125.080,0.07848883,0.08098,9.840344,0.00065259636,0.0036580116,-0.0012608878,-6528.0,-5892.5,-26237.5,
125.201,0.05933523,0.11928723,9.83795,0.0011855215,-0.0003389269,-0.0003282698,-6528.0,-5892.5,-26493.5,
125.317,0.044970036,0.13125824,9.871469,-0.002411738,0.0008601546,0.0026028176,-6528.0,-5636.5,-26749.5,
125.433,0.13355547,0.09773941,9.780489,0.000785827636,-0.0071337184,-0.0008611949,-7040.0,-6148.5,-26237.5,
125.550,0.042575836,0.03549017,9.842738,0.00065259636,-0.0011383183,-0.0029928944,-6272.0,-5636.5,-26749.5,
125.667,0.0353932384,0.06422059,9.835556,-0.004276961,0.0013930798,-0.002726432,-6528.0,-6148.5,-25469.5,
125.789,0.07130623,0.092951016,9.895411,-0.00067971648,0.00059369208,-0.0015273513,-6272.0,-6404.5,-27005.5,
125.906,0.056941032,0.0714032,9.861892,-0.0030778944,-0.0015380084,7.142406e-05,-6528.0,-6404.5,-25725.5,
126.021,0.07370043,0.0833742,9.864286,-0.0016123354,0.0021924674,-0.00046150108,-6784.0,-5892.5,-26493.5,
126.137,0.1479207,0.042672776,9.785277,-0.0050763636,0.0043241644,0.003268974,-6784.0,-6404.5,-26237.5,
126.253,0.09045982,0.107316224,9.689509,-0.0040104984,0.0036580116,-0.000727963636,-6528.0,-6148.5,-26493.5,
126.378,0.088065624,0.095345216,9.811614,0.0002528876,-0.0026038588,-0.003925513,-6528.0,-5636.5,-25981.5,
126.494,0.06891203,0.037884372,9.859498,-0.0022784918,0.0033915452,-0.003259357,-6528.0,-6404.5,-26493.5,
126.610,0.018633782,0.09055681,9.782884,-0.0054760424,0.0019260049,0.0014037369,-6528.0,-5380.5,-26493.5,
126.729,-0.03882706,0.15759446,9.816402,-0.001878798,-0.0010050833,-0.0020602756,-6272.0,-5892.5,-26749.5,
126.845,0.05933523,0.112104624,9.818796,-0.0005464852,-0.0011383183,-0.0020602756,-6784.0,-5636.5,-26749.5,
126.968,0.085671424,0.13365245,9.768518,-0.0062754304,-0.0010050833,-0.0019270442,-6784.0,-5892.5,-25725.5,
127.087,0.054546832,0.10492202,9.816402,-0.0012126416,-0.0012715459,0.0020698932,-6016.0,-6404.5,-27517.5,
127.204,-0.012490809,0.112104624,9.907382,0.00185167792,0.0019260049,-0.003259357,-6272.0,-5380.5,-26237.5,
127.325,0.10243088,0.040278572,9.814008,0.002384603,0.0023256988,-6.180722e-05,-6784.0,-5636.5,-27261.5,
127.442,0.088065624,0.08576841,9.828373,0.0029175282,-0.0010050833,-0.0029928944,-6272.0,-5636.5,-25469.5,
127.565,-0.029250264,0.09773941,9.821191,-0.0037440508,0.0012598485,0.002336355,-6016.0,-6404.5,-26237.5,
127.681,0.07130623,0.040278572,9.835556,-0.0014791042,-0.00380293668,-0.002326738,-6272.0,-5380.5,-26749.5,
127.799,0.06651783,0.0737974,9.876257,-0.0012126416,0.0021924674,-0.000727963636,-6784.0,-5380.5,-26493.5,
127.915,0.056941032,0.03549017,9.857103,0.00185167792,-0.0026038588,-0.00046150108,-6016.0,-6148.5,-26749.5,
128.039,0.06412363,0.0761916,9.864286,-0.0005464852,-0.0016712397,-0.0047249004,-6272.0,-5892.5,-25981.5,
128.154,0.06651783,0.04746118,9.825979,-0.00414373,-0.0011383183,-0.0053910568,-6272.0,-6148.5,-26493.5,
128.269,0.056941032,0.0833742,9.857103,-0.0045434236,0.0036580116,-0.0015273513,-7040.0,-6404.5,-26493.5,
128.386,0.044970036,0.06422059,9.852315,-0.0022784918,-0.0014047772,0.00047111884,-6528.0,-6148.5,-25981.5,
128.503,0.011451185,0.0761916,9.816402,0.0034504532,-0.0012715459,-0.006723369,-6528.0,-6404.5,-26493.5,
128.625,0.037787436,0.037884372,9.83795,0.003317222,-7.246435e-05,-0.0035258192,-6528.0,-6660.5,-25469.5,
128.741,0.056941032,0.12646984,9.787672,-0.002411738,-0.0003389269,-0.0011276575,-7040.0,-5636.5,-25981.5,
128.857,0.06172943,0.12886404,9.873863,-0.0053428112,-0.0012715459,-0.0003282698,-6528.0,-6404.5,-26749.5,
128.973,0.03299904,0.0833742,9.816402,-0.0032111108,-0.00766664368,-0.0003282698,-7040.0,-6660.5,-26493.5,
129.089,0.0353932384,0.09773941,9.881045,0.00065259636,0.00179276984,-0.001793813,-6528.0,-5380.5,-26493.5,
129.213,0.09285402,0.06900899,9.85471,0.00065259636,-0.0014047772,-0.004191975,-6528.0,-6148.5,-27517.5,
129.328,0.083277224,0.109710424,9.794854,-0.0050763636,0.0008601546,0.000337886632,-7040.0,-5892.5,-26749.5,
129.447,0.06651783,0.06900899,9.885834,-0.002811417,-0.0047355556,0.00073758052,-6784.0,-5892.5,-25981.5,
129.563,0.07130623,0.0714032,9.814008,0.0002528876,0.00072692332,-0.0049913632,-7296.0,-6148.5,-27005.5,
129.678,0.0258163816,0.057037988,9.921747,-0.0014791042,-0.00273709,-0.0009944253,-6272.0,-6148.5,-26749.5,
129.801,0.07609463,0.040278572,9.840344,-0.00347757336,-7.246435e-05,-0.001793813,-6016.0,-5636.5,-26237.5,
129.918,0.054546832,0.09773941,9.816402,-0.00081294776,0.0020592324,-0.0011276575,-6272.0,-5892.5,-27005.5,
130.035,0.10482508,0.095345216,9.787672,-1.3560057e-05,0.00179276984,-0.0020602756,-6272.0,-5892.5,-27005.5,
130.154,0.080883024,0.16717127,9.79246,0.00065259636,-0.00180447468,0.0030025114,-6528.0,-5380.5,-26749.5,
130.273,0.03299904,0.15041184,9.897805,-0.00014679134,-0.000738620736,-0.0020602756,-7040.0,-6148.5,-26237.5,
130.397,0.085671424,0.095345216,9.818796,-0.0004132688,-0.00313678,-0.002326738,-6528.0,-5124.5,-25981.5,
130.511,0.06891203,0.06900899,9.821191,0.0005193651,0.00019399822,-0.004458438,-7040.0,-5636.5,-25725.5,
130.626,0.06412363,0.08098,9.845133,0.001451984,0.0023256988,-0.0053910568,-6784.0,-5892.5,-26237.5,
130.741,0.040181636,0.04506698,9.754153,-0.0025449544,-0.0032700152,-0.0020602756,-6784.0,-5636.5,-25981.5,
130.864,0.07609463,0.0714032,9.835556,-0.0017455816,0.0012598485,0.000337886632,-7296.0,-5636.5,-25981.5,
130.981,0.06651783,0.10013361,9.852315,-0.0020120292,0.0025921612,-0.00046150108,-6016.0,-6148.5,-25469.5,
131.099,0.07370043,0.06422059,9.861892,-0.00347757336,0.0020592324,-0.0005947314,-6528.0,-6404.5,-26237.5,
131.215,0.07130623,0.06182639,9.845133,-0.0045434236,-0.0020709336,-0.0035258192,-6784.0,-6148.5,-25725.5,
131.332,0.09285402,0.059432188,9.809219,-0.0045434236,0.00179276984,-0.003259357,-7040.0,-6404.5,-26237.5,
131.455,0.056941032,0.10013361,9.869075,-0.0025449544,0.000460457068,-6.180722e-05,-6528.0,-6404.5,-26237.5,
131.574,0.07370043,0.0737974,9.871469,0.0025178344,0.0031250828,-0.00339258784,-6784.0,-5892.5,-26493.5,
131.691,0.088065624,0.06422059,9.833161,-0.005609274,-0.0024706236,-0.0065901376,-6784.0,-5892.5,-26493.5,
131.807,0.013845384,0.12407564,9.811614,0.001451984,0.001526311,-0.004191975,-6272.0,-5892.5,-27773.5,
131.924,0.0353932384,0.08576841,9.842738,-0.00414373,-0.0062011032,-0.0011276575,-5760.0,-5124.5,-26749.5,
132.047,0.06172943,0.0761916,9.768518,0.0026510656,0.0020592324,-0.00046150108,-6272.0,-5636.5,-27261.5,
132.163,0.06891203,0.109710424,9.802037,-0.0045434236,-0.0004721582,-6.180722e-05,-6528.0,-5636.5,-28029.5,
132.280,0.054546832,0.08098,9.799643,0.0013187528,0.0003272295,0.00193666116,-6272.0,-5892.5,-27261.5,
132.397,0.07130623,0.0761916,9.770912,-0.004676655,-0.000871852064,0.0031357436,-7040.0,-6148.5,-26493.5,
132.519,0.03060478,0.10252782,9.799643,-0.0022784918,-0.0028703212,-0.0021935068,-6528.0,-6148.5,-28029.5,
132.642,0.054546832,0.08816261,9.768518,0.0021181404,0.0021924674,-0.0035258192,-6784.0,-6404.5,-26749.5,
132.759,0.056941032,0.08816261,9.799643,-0.0013458729,0.003791239,-0.001793813,-6784.0,-6148.5,-25981.5,
132.875,0.06412363,0.06182639,9.818796,-0.00067971648,-0.006467562,-0.0015273513,-6016.0,-6148.5,-25981.5,
132.991,0.052152632,0.08816261,9.847527,-0.0017455816,-0.0015380084,-0.003925513,-6528.0,-6148.5,-27261.5,
133.107,0.03060478,0.08576841,9.845133,-0.002411738,0.0003272295,0.0006043492,-6784.0,-5636.5,-27261.5,
133.227,0.037787436,0.06661479,9.849921,0.0019849092,-0.0014047772,-0.0031261258,-6528.0,-5380.5,-27261.5,
133.344,0.02821058,0.0785858,9.794854,0.000785827636,0.0033915452,-0.0005947314,-7040.0,-6404.5,-26493.5,
133.460,0.0353932384,0.09055681,9.845133,-0.0017455816,0.00019399822,-0.0031261258,-7296.0,-6660.5,-25981.5,
133.578,0.049758436,0.08098,9.85471,-0.002811417,0.001526311,-0.0021935068,-6784.0,-5636.5,-25725.5,
133.698,0.06651783,0.0785858,9.83795,0.00065259636,0.0009933859,0.0006043492,-6528.0,-6148.5,-27773.5,
133.812,0.040181636,0.04985538,9.821191,-0.0026781856,-0.0010050833,0.0015369672,-6784.0,-6148.5,-27517.5,
133.929,0.06651783,0.06422059,9.806826,0.0027842968,0.0044573956,0.0027360496,-6272.0,-5636.5,-26749.5,
134.045,0.044970036,0.10252782,9.845133,-0.007074803,0.00179276984,-0.0019270442,-6784.0,-5636.5,-26749.5,
134.163,0.06412363,0.0737974,9.890622,0.0017184466,-0.004469093,-0.001793813,-6784.0,-5892.5,-26493.5,
134.284,0.06172943,0.0785858,9.859498,0.0003861338,0.0003272295,-0.0052578252,-6272.0,-5892.5,-26237.5,
134.398,0.052152632,0.04746118,9.849921,-0.00067971648,0.0008601546,-0.0031261258,-6528.0,-5892.5,-26237.5,
134.515,0.06651783,0.107316224,9.83795,-0.0021452606,-0.00313678,0.0018034298,-6784.0,-5636.5,-27773.5,
134.631,0.06412363,0.0785858,9.888228,-0.00067971648,0.000460457068,-0.003259357,-6272.0,-5636.5,-25981.5,
134.747,0.054546832,0.0714032,9.823585,-0.006541893,-0.004602328,-0.00046150108,-6784.0,-6404.5,-26237.5,
134.867,0.03060478,0.059432188,9.864286,0.001451984,-0.0030035526,7.142406e-05,-6784.0,-5892.5,-26493.5,
134.982,0.05933523,0.059432188,9.825979,-0.0029446482,0.0055232496,0.00020465534,-6784.0,-5636.5,-26749.5,
135.100,0.016239584,0.08098,9.828373,-0.00081294776,-0.0011383183,-0.0043252064,-7040.0,-5636.5,-25725.5,
135.217,0.09045982,0.06422059,9.88344,0.0011855215,0.0009933859,0.0020698932,-6528.0,-5636.5,-27005.5,
135.332,0.042575836,0.08816261,9.85471,-0.0020120292,-0.0022041648,-0.0016605817,-6784.0,-6148.5,-25981.5,
135.455,0.040181636,0.10013361,9.816402,-0.0054760424,0.004857093,-0.0003282698,-6784.0,-6404.5,-26493.5,
135.572,0.06172943,0.0785858,9.830768,0.0031839908,0.00072692332,-0.003925513,-6272.0,-6404.5,-25469.5,
135.687,0.07130623,0.04746118,9.888228,-0.001878798,-0.0024706236,-0.0003282698,-6784.0,-6404.5,-27005.5,
135.802,0.049758436,0.054643784,9.86668,0.0031839908,-0.0010050833,-0.0008611949,-6272.0,-6404.5,-26749.5,
135.919,0.06651783,0.10492202,9.821191,-0.0010794252,0.0003272295,-0.0016605817,-7040.0,-6916.5,-26493.5,
136.041,0.03299904,0.0714032,9.859498,-0.0017455816,0.0008601546,-0.0008611949,-6784.0,-6404.5,-26749.5,
