# epoch_start_s=1609459683
timestamp_s,accel_x,accel_y,accel_z,gyro_x,gyro_y,gyro_z,mag_x,mag_y,mag_z,wind_vane_deg
# wind_vane_deg is blank for the first 270 s, populated for the final 30 s
0.110,-1.2670524,-0.1895648,9.600924,0.0030507594,0.0057897084,0.0018034298,-24192.0,-32515.5,-18301.5,
0.226,-1.1018526,-0.08900832,9.646414,-0.00094617908,0.0053900144,-0.0013941191,-24448.0,32764.5,-16509.5,
0.343,-1.2215626,-0.09858513,9.770912,-0.0054760424,0.0049903208,0.0018034298,-23936.0,32508.5,-17277.5,
0.460,-1.2574756,-0.203929984,9.754153,-0.0010794252,0.0011266135,-0.0037922818,-23680.0,-32003.5,-16765.5,
0.586,-1.2455046,-0.172805368,9.696692,-0.0092065184,0.0008601546,-0.0008611949,-24448.0,-32515.5,-16765.5,
0.703,-1.2574756,-0.170411168,9.754153,-0.0017455816,0.00179276984,-0.0024599694,-24192.0,32252.5,-17277.5,
0.822,-1.3005714,-0.22308362,9.706269,-0.0054760424,0.0035247804,-0.0008611949,-24448.0,31996.5,-17021.5,
0.941,-1.1569192,-0.17759377,9.677539,-0.0022784918,-0.0023373962,-0.0019270442,-24448.0,32764.5,-16253.5,
1.066,-1.2287452,-0.15844018,9.778095,0.0011855215,0.006589096,-0.0045916692,-24704.0,31996.5,-16253.5,
1.183,-1.2119858,-0.14646916,9.770912,-0.00014679134,0.0024589264,-0.0021935068,-24448.0,32764.5,-15485.5,
1.300,-1.2095916,-0.17759377,9.715846,-0.00347757336,0.00179276984,-0.002726432,-24192.0,31484.5,-15997.5,
1.420,-1.250293,-0.16562277,9.701481,-0.002811417,0.0013930798,0.00020465534,-25216.0,31740.5,-15741.5,
1.537,-1.2239568,-0.13689235,9.802037,-0.004676655,-7.246435e-05,0.0026028176,-24960.0,31228.5,-15229.5,
1.659,-1.2119858,-0.168016976,9.706269,-0.002811417,0.00019399822,-0.0001950385,-24704.0,30972.5,-15485.5,
1.777,-1.226351,-0.15365176,9.778095,-0.0044102072,0.00179276984,0.00073758052,-24448.0,31228.5,-14973.5,
1.895,-1.2239568,-0.14886336,9.677539,-0.003344342,-0.0006053895,-0.0001950385,-24704.0,30716.5,-14973.5,
2.011,-1.2239568,-0.203929984,9.859498,-0.0026781856,-0.0010050833,-6.180722e-05,-24448.0,30716.5,-16253.5,
2.129,-1.226351,-0.21111262,9.761335,-0.0058757364,0.0023256988,-0.0019270442,-24192.0,30716.5,-15485.5,
2.252,-1.21438,-0.12492134,9.756547,-0.005609274,0.0044573956,-0.0035258192,-24704.0,30204.5,-15997.5,
2.367,-1.2000148,-0.201535792,9.715846,-0.004809886,-0.0004721582,0.0035354364,-24704.0,30972.5,-15741.5,
2.484,-1.2119858,-0.21590102,9.715846,-0.006541893,0.008321103,0.0027360496,-24704.0,31740.5,-15741.5,
2.601,-1.2071974,-0.16562277,9.732605,-0.0054760424,-0.0015380084,-0.0009944253,-24960.0,31996.5,-15741.5,
2.718,-1.2215626,-0.1847764,9.667962,-0.0012126416,0.00179276984,-0.0019270442,-25216.0,30972.5,-15741.5,
2.841,-1.2359278,-0.1943532,9.684721,-0.0013458729,0.0057897084,-0.0008611949,-25216.0,30716.5,-15997.5,
2.957,-1.2287452,-0.1823822,9.723028,0.0013187528,0.0016595423,-0.00339258784,-25216.0,30460.5,-14205.5,
3.075,-1.1688902,-0.14646916,9.596135,-0.0038772672,0.005256787,-0.0015273513,-24704.0,30972.5,-14973.5,
3.192,-1.2095916,-0.1943532,9.739788,-0.0020120292,0.003791239,-0.000727963636,-25216.0,30460.5,-15229.5,
3.309,-1.2000148,-0.15125756,9.725423,-0.0037440508,0.0016595423,-0.0005947314,-25216.0,30972.5,-15741.5,
3.432,-1.2191684,-0.172805368,9.735,0.000119671224,-0.00180447468,0.0030025114,-25472.0,30716.5,-16253.5,
3.552,-1.250293,-0.21111262,9.735,-0.0014791042,0.0036580116,0.00073758052,-24704.0,30716.5,-15229.5,
3.668,-1.1976206,-0.15125756,9.770912,-0.0021452606,0.0019260049,-0.000727963636,-24704.0,30716.5,-14973.5,
3.788,-1.2431104,-0.21111262,9.761335,-0.0014791042,-0.0023373962,0.0011372734,-24960.0,31484.5,-16509.5,
3.906,-1.1593134,-0.13689235,9.687116,-0.0064086468,0.009253722,-0.0037922818,-25472.0,31484.5,-16509.5,
4.029,-1.250293,-0.191959,9.677539,-0.0038772672,0.0009933859,-0.0029928944,-24192.0,31740.5,-17021.5,
4.144,-1.2478988,-0.1823822,9.727817,0.0022513718,0.0009933859,-0.0008611949,-24448.0,31996.5,-15741.5,
4.260,-1.2335336,-0.1823822,9.79246,-0.004676655,0.0013930798,-0.0019270442,-24704.0,32764.5,-16253.5,
4.375,-1.1976206,-0.16083437,9.691904,-0.00067971648,0.0008601546,-0.0028596632,-24192.0,32508.5,-15741.5,
4.498,-1.250293,-0.196747384,9.706269,-0.005609274,0.0016595423,-0.00046150108,-23168.0,32764.5,-15997.5,
4.615,-1.2431104,-0.235054608,9.773307,-0.0010794252,0.000460457068,0.001004043,-23680.0,32508.5,-15741.5,
4.734,-1.2455046,-0.239843016,9.706269,-0.006142199,0.0012598485,-0.0009944253,-23168.0,32252.5,-16509.5,
4.852,-1.2335336,-0.172805368,9.770912,-0.0058757364,0.0009933859,-0.0009944253,-22656.0,31996.5,-15997.5,
4.970,-1.2167742,-0.15125756,9.756547,-0.0014791042,0.0024589264,0.0016701994,-22912.0,32508.5,-16253.5,
5.094,-1.250293,0.0043655484,9.744576,-0.0021452606,0.004857093,-0.000727963636,-23424.0,31740.5,-17277.5,
5.211,-1.2455046,-0.26139084,9.749365,-0.00067971648,0.0019260049,-0.0019270442,-22912.0,32764.5,-16509.5,
5.330,-1.2287452,-0.1895648,9.687116,-0.0026781856,0.0008601546,-0.0005947314,-23936.0,31740.5,-17277.5,
5.444,-1.250293,-0.21590102,9.749365,-0.004809886,-0.0006053895,-0.0021935068,-23168.0,-32515.5,-17021.5,
5.559,-1.2095916,-0.179988,9.682327,-0.00694158636,0.0020592324,-0.0016605817,-23680.0,32764.5,-16509.5,
5.682,-1.2119858,-0.17759377,9.785277,-0.003344342,0.0036580116,0.001004043,-23424.0,32764.5,-17277.5,
5.799,-1.3029656,-0.239843016,9.749365,-0.0037440508,-0.0023373962,-0.0024599694,-23680.0,-31747.5,-17789.5,
5.918,-1.250293,-0.12013294,9.761335,-0.0025449544,0.003791239,0.0026028176,-23680.0,32252.5,-16509.5,
6.040,-1.238322,-0.172805368,9.744576,-0.0020120292,0.0057897084,-0.0008611949,-23424.0,32252.5,-17789.5,
6.157,-1.2000148,-0.16322857,9.651202,0.0005193651,-0.000205695632,0.001004043,-23936.0,32764.5,-16509.5,
6.280,-1.226351,-0.1847764,9.727817,-0.003344342,0.0024589264,-0.0031261258,-24192.0,32252.5,-17021.5,
6.395,-1.1880438,-0.16322857,9.735,-0.00028002262,0.0025921612,-0.0025932006,-23936.0,31996.5,-15997.5,
6.513,-1.238322,-0.175199568,9.706269,-0.0004132688,0.0025921612,-6.180722e-05,-23936.0,31996.5,-15997.5,
6.630,-1.1928322,-0.1895648,9.751759,-0.0057424904,-0.0032700152,-0.0013941191,-24192.0,30972.5,-14973.5,
6.746,-1.2167742,-0.12492134,9.735,-0.004676655,0.0035247804,-0.0028596632,-23936.0,30460.5,-14717.5,
6.869,-1.2431104,-0.168016976,9.684721,-0.00347757336,-0.000205695632,0.00047111884,-23680.0,30204.5,-15741.5,
6.990,-1.1976206,-0.15844018,9.696692,-1.3560057e-05,0.0019260049,0.0016701994,-24448.0,30716.5,-14717.5,
7.109,-1.250293,-0.16562277,9.725423,-0.003344342,0.008587565,-0.0036590504,-23936.0,30972.5,-14205.5,
7.224,-1.1832554,-0.206324184,9.778095,-0.00414373,0.0035247804,-0.0008611949,-24192.0,30716.5,-15229.5,
7.343,-1.21438,-0.22787202,9.74697,-0.0022784918,0.0024589264,0.0018034298,-23936.0,30204.5,-14973.5,
7.465,-1.238322,-0.21350682,9.76373,-0.006675124,0.0013930798,-0.000727963636,-23680.0,30716.5,-14973.5,
7.581,-1.1952264,-0.15844018,9.713451,-0.0053428112,0.0024589264,-0.0015273513,-24192.0,30716.5,-14717.5,
7.699,-1.178467,-0.15125756,9.739788,-1.3560057e-05,0.0059229432,7.142406e-05,-24448.0,30972.5,-15229.5,
7.815,-1.2646582,-0.15844018,9.691904,-0.0014791042,0.0033915452,-0.0005947314,-23936.0,30460.5,-14973.5,
7.931,-1.2048032,-0.17759377,9.727817,-0.006541893,0.0031250828,-0.0001950385,-23424.0,31484.5,-15229.5,
8.054,-1.21438,-0.22068942,9.708663,-0.0004132688,-0.000205695632,0.0024695872,-24448.0,30204.5,-14973.5,
8.171,-1.2191684,-0.16562277,9.74697,-0.00081294776,0.0031250828,0.001004043,-23936.0,30460.5,-13437.5,
8.288,-1.295783,-0.24702564,9.749365,-0.004809886,-0.0004721582,-0.0021935068,-25216.0,30204.5,-14461.5,
8.403,-1.1617076,-0.079431508,9.71824,-0.004276961,0.0033915452,7.142406e-05,-24192.0,30972.5,-14205.5,
8.524,-1.2838118,-0.203929984,9.775701,-0.002411738,0.0016595423,-0.0015273513,-23680.0,30972.5,-15229.5,
8.643,-1.1952264,-0.22068942,9.713451,-0.0017455816,0.0019260049,-0.0021935068,-24448.0,30716.5,-14717.5,
8.761,-1.1880438,-0.235054608,9.825979,-0.0040104984,0.003924474,0.00087081176,-23680.0,30972.5,-15485.5,
8.879,-1.3053598,-0.27575606,9.739788,-0.005609274,-0.0006053895,0.0018034298,-24192.0,30460.5,-14461.5,
8.996,-1.2119858,-0.23266042,9.677539,0.0017184466,0.0057897084,0.000337886632,-24448.0,30460.5,-14461.5,
9.121,-1.238322,-0.29251546,9.749365,-0.0058757364,0.0033915452,0.0006043492,-24448.0,30972.5,-13693.5,
9.237,-1.2239568,-0.175199568,9.725423,-0.002811417,0.0028586238,0.00047111884,-24704.0,30972.5,-14973.5,
9.355,-1.2287452,-0.1871706,9.732605,-0.0030778944,-0.0004721582,-0.0008611949,-24704.0,30716.5,-14461.5,
9.470,-1.1473424,-0.16562277,9.782884,-0.0054760424,0.0012598485,-0.002726432,-24448.0,30972.5,-15485.5,
9.587,-1.2407162,-0.1871706,9.79246,-0.0032111108,0.0068555624,-0.0009944253,-25216.0,31228.5,-14717.5,
9.709,-1.2359278,-0.191959,9.749365,-0.0044102072,-0.0012715459,-0.0003282698,-24960.0,30460.5,-15229.5,
9.825,-1.1976206,-0.179988,9.797249,-0.0021452606,0.0024589264,-0.0008611949,-25216.0,30716.5,-14717.5,
9.941,-1.2071974,-0.14886336,9.720634,-0.0040104984,-0.0022041648,0.00020465534,-24960.0,31484.5,-14973.5,
10.058,-1.2598698,-0.14646916,9.758942,-0.007074803,-0.008066338,-0.0057907504,-24192.0,30972.5,-15229.5,
10.174,-1.1832554,-0.077037304,9.857103,-0.005609274,0.0021924674,-0.003259357,-24448.0,30972.5,-15229.5,
10.296,-1.1329772,-0.12492134,9.723028,-0.0016123354,-0.005534947,-0.000727963636,-24704.0,30716.5,-15741.5,
10.414,-1.2119858,-0.27096764,9.679933,-0.0005464852,0.0053900144,0.0014037369,-24448.0,31996.5,-15485.5,
10.531,-1.3532438,-0.25899664,9.706269,-0.002811417,6.0766936e-05,0.0024695872,-24704.0,30972.5,-14461.5,
10.649,-1.2119858,-0.14646916,9.804431,-0.00347757336,0.0024589264,0.0022031236,-24704.0,31740.5,-16253.5,
10.767,-1.1760728,-0.15125756,9.735,0.0039833636,0.0029918552,-0.002726432,-24448.0,31740.5,-14717.5,
10.889,-1.2478988,-0.21829522,9.694298,-0.0013458729,-0.0039361716,7.142406e-05,-24192.0,31484.5,-15485.5,
11.006,-1.2215626,-0.16322857,9.646414,-0.006541893,0.0016595423,-0.004458438,-24448.0,31484.5,-15485.5,
11.123,-1.1569192,-0.08421992,9.775701,-0.0037440508,0.0053900144,-0.0015273513,-24704.0,31484.5,-15741.5,
11.240,-1.2431104,-0.206324184,9.711058,-0.00028002262,0.0021924674,0.0014037369,-24448.0,30972.5,-15997.5,
11.359,-1.190438,-0.22787202,9.766124,-0.0021452606,0.005656477,-0.0024599694,-24704.0,31740.5,-14461.5,
11.481,-1.2359278,-0.1943532,9.706269,-0.0092065184,0.0019260049,-0.0015273513,-24192.0,31996.5,-15741.5,
11.599,-1.2095916,-0.21350682,9.744576,-0.0053428112,0.0035247804,-0.001793813,-24448.0,31996.5,-15485.5,
11.717,-1.1952264,-0.15844018,9.682327,-0.00361080468,-0.000205695632,-0.0011276575,-24192.0,30972.5,-15229.5,
11.837,-1.1880438,-0.15844018,9.679933,-0.006675124,-0.00273709,-0.0013941191,-24448.0,31484.5,-14461.5,
11.958,-1.2119858,-0.24702564,9.754153,-0.0014791042,-0.004602328,0.00020465534,-24448.0,32252.5,-15229.5,
12.075,-1.2191684,-0.13689235,9.720634,-0.006541893,0.0043241644,-0.0053910568,-25472.0,31740.5,-14973.5,
12.191,-1.2646582,-0.22308362,9.711058,-0.0038772672,0.0043241644,0.00047111884,-25216.0,32508.5,-13949.5,
12.309,-1.274235,-0.11773874,9.790066,-0.001878798,-0.0026038588,-0.0037922818,-25216.0,32508.5,-15229.5,
12.427,-1.1760728,-0.1943532,9.732605,-0.0022784918,0.0011266135,-0.003259357,-25216.0,32508.5,-15485.5,
12.549,-1.2239568,-0.108161928,9.706269,-0.00081294776,0.0021924674,-0.00046150108,-25216.0,32252.5,-15485.5,
12.668,-1.2550814,-0.239843016,9.71824,-0.00094617908,-0.000205695632,-0.0031261258,-24704.0,32252.5,-14461.5,
12.787,-1.1736786,-0.208718384,9.74697,-0.008540362,0.007122021,-6.180722e-05,-24960.0,31996.5,-14973.5,
12.903,-1.2048032,-0.21350682,9.622472,-0.00067971648,0.0012598485,-0.0011276575,-24960.0,31228.5,-15229.5,
13.021,-1.2048032,-0.12970975,9.699086,-0.0038772672,0.004857093,0.00047111884,-24704.0,31740.5,-14717.5,
13.144,-1.3005714,-0.1895648,9.802037,-0.0020120292,-0.0030035526,-0.0015273513,-24704.0,31228.5,-15485.5,
13.261,-1.2933888,-0.12492134,9.828373,0.0002528876,-0.0032700152,-0.0011276575,-24960.0,31996.5,-15485.5,
13.378,-1.1880438,-0.10337353,9.706269,-0.0038772672,0.0031250828,-0.0008611949,-25216.0,31484.5,-14973.5,
13.496,-1.202409,-0.24223724,9.723028,-0.0032111108,0.0027253888,7.142406e-05,-24704.0,32252.5,-13949.5,
13.612,-1.1856496,-0.201535792,9.739788,-0.0012126416,-0.000871852064,-0.000727963636,-24960.0,31228.5,-15229.5,
13.738,-1.1569192,-0.39786036,9.785277,0.000919044,-0.0023373962,0.0016701994,-24704.0,32252.5,-14717.5,
13.855,-1.1856496,-0.11295034,9.74697,-0.00414373,0.0021924674,-0.0016605817,-25472.0,32252.5,-14717.5,
13.971,-1.166496,-0.22308362,9.828373,-0.0032111108,-0.005002022,-0.0020602756,-25472.0,31740.5,-14461.5,
14.087,-1.1976206,-0.10576773,9.749365,0.0017184466,-0.0016712397,-0.001793813,-24960.0,31484.5,-14717.5,
14.204,-1.0898816,0.006759748,9.715846,-0.001878798,0.0067223272,-6.180722e-05,-25216.0,31740.5,-14717.5,
14.325,-1.1138236,-0.32842848,9.670356,-0.0044102072,0.0016595423,0.002336355,-24448.0,30972.5,-13693.5,
14.442,-1.2335336,-0.15365176,9.667962,-0.0049431176,0.0045906304,0.0022031236,-24960.0,31996.5,-16509.5,
14.559,-1.1353714,-0.057883696,9.677539,-0.00520958,0.005123552,0.00020465534,-25472.0,31996.5,-14461.5,
14.675,-1.2646582,-0.31166908,9.696692,0.001451984,0.00698879,0.0012705056,-24704.0,31484.5,-14717.5,
14.790,-1.1162178,-0.237448816,9.744576,-0.0021452606,-0.0051352492,0.00087081176,-25216.0,31740.5,-15485.5,
14.915,-1.1928322,-0.36434152,9.691904,0.00065259636,0.0043241644,0.0014037369,-24448.0,31740.5,-14205.5,
15.033,-1.1712844,-0.29969804,9.756547,-0.0005464852,-0.000738620736,-0.003259357,-24960.0,32252.5,-13949.5,
15.150,-1.106641,-0.093796712,9.641625,-0.0060089676,-0.0026038588,-0.004458438,-25216.0,31996.5,-15741.5,
15.266,-1.2335336,-0.27096764,9.703875,-0.0058757364,0.005123552,0.003268974,-25472.0,31484.5,-14205.5,
15.388,-1.2071974,-0.1943532,9.67275,-0.008407116,-0.000205695632,-0.002326738,-25472.0,32508.5,-14717.5,
15.504,-1.1760728,-0.201535792,9.660779,-0.0017455816,0.0049903208,0.0012705056,-24448.0,32508.5,-15741.5,
15.623,-1.1976206,-0.03394168,9.684721,-0.002411738,0.00698879,-0.002326738,-25216.0,31996.5,-14973.5,
15.737,-1.1760728,-0.14886336,9.679933,0.0002528876,0.009253722,0.00047111884,-25216.0,32508.5,-14973.5,
15.853,-1.0396032,0.037884372,9.723028,-0.0049431176,0.0035247804,0.0015369672,-25984.0,31996.5,-15229.5,
15.978,-1.1617076,-0.079431508,9.76373,-0.0026781856,0.0041909368,-0.0011276575,-25216.0,31740.5,-15229.5,
16.094,-1.2838118,-0.22068942,9.871469,-0.0025449544,-0.0014047772,-0.0029928944,-24960.0,-31747.5,-16765.5,
16.212,-1.2215626,-0.19914159,9.739788,0.0019849092,-0.00380293668,0.00047111884,-24448.0,-32259.5,-15997.5,
16.332,-1.2287452,-0.203929984,9.778095,-0.006541893,-0.0023373962,0.0015369672,-23936.0,-32515.5,-16253.5,
16.450,-1.1880438,-0.179988,9.653597,-0.001878798,0.0032583176,-0.004458438,-24960.0,-31747.5,-15485.5,
16.571,-1.3029656,-0.21350682,9.79246,0.0019849092,-0.0052684844,0.000337886632,-24704.0,-31747.5,-16509.5,
16.689,-1.202409,-0.15844018,9.689509,-0.0021452606,6.0766936e-05,-0.0025932006,-25728.0,-30723.5,-15997.5,
16.806,-1.2407162,-0.239843016,9.849921,-0.0032111108,-0.004469093,-0.0045916692,-27264.0,-31235.5,-16253.5,
16.924,-1.0922758,-0.13210395,9.550646,-0.008140668,0.009786647,-0.003925513,-28032.0,-31235.5,-15997.5,
17.040,-1.2287452,-0.168016976,9.744576,-0.004809886,0.001526311,0.0015369672,-27264.0,-31491.5,-16765.5,
17.162,-1.2550814,-0.208718384,9.799643,-0.0017455816,0.0011266135,0.0011372734,-27520.0,-30467.5,-16509.5,
17.281,-1.178467,-0.175199568,9.667962,-0.007474512,0.0044573956,-0.0008611949,-27264.0,-30723.5,-16509.5,
17.398,-1.2095916,-0.179988,9.773307,-0.007874206,-0.000205695632,0.00020465534,-27008.0,-29443.5,-15229.5,
17.520,-1.2287452,-0.1847764,9.797249,-0.003344342,0.00019399822,-0.0011276575,-27264.0,-29955.5,-15741.5,
17.642,-0.9989019,-0.0219706668,9.825979,0.0026510656,0.0031250828,-0.0020602756,-26752.0,-29699.5,-15229.5,
17.760,-1.2287452,-0.1943532,9.74697,-0.0040104984,0.004723858,-0.0024599694,-27008.0,-30211.5,-14973.5,
17.875,-1.106641,-0.12970975,9.751759,0.000119671224,0.0021924674,-0.0040587444,-27520.0,-29955.5,-14973.5,
17.994,-1.2574756,-0.12492134,9.914564,-0.0050763636,-7.246435e-05,-0.002326738,-27520.0,-28931.5,-14973.5,
18.110,-1.1880438,-0.16322857,9.809219,-0.004676655,0.0035247804,-0.0047249004,-26496.0,-29955.5,-14973.5,
18.235,-1.2048032,-0.237448816,9.742182,-0.0025449544,0.0049903208,-0.0020602756,-27520.0,-30211.5,-15997.5,
18.353,-1.2287452,-0.1895648,9.790066,-0.0029446482,0.0020592324,-0.004191975,-27264.0,-29699.5,-14973.5,
18.469,-1.3245134,-0.055489496,9.706269,-0.0062754304,0.0021924674,0.00286928,-27520.0,-30467.5,-15997.5,
18.586,-1.367609,-0.29969804,9.67275,-0.0013458729,0.0013930798,-0.0024599694,-27264.0,-29699.5,-15741.5,
18.702,-1.355638,-0.038730084,9.632049,-0.0037440508,-0.0052684844,-0.0047249004,-27776.0,-30211.5,-15997.5,
18.825,-1.2071974,-0.11295034,9.691904,-0.00520958,6.0766936e-05,-0.005124594,-26496.0,-29955.5,-15741.5,
18.941,-1.0994584,-0.10097933,9.694298,-0.0044102072,0.0045906304,-0.0040587444,-26496.0,-29955.5,-14717.5,
19.058,-1.3053598,-0.26378504,9.758942,-0.0020120292,0.00019399822,0.000337886632,-26752.0,-29443.5,-14461.5,
19.177,-1.2191684,-0.206324184,9.711058,-0.0025449544,0.0013930798,-0.0028596632,-26240.0,-29699.5,-13693.5,
19.295,-1.2455046,-0.14886336,9.560223,-0.0037440508,0.0077881776,-0.0019270442,-26240.0,-29443.5,-14717.5,
19.419,-1.0515745,-0.08182572,9.739788,-0.0012126416,0.00725525236,0.001004043,-25728.0,-28931.5,-13693.5,
19.536,-1.202409,-0.11534454,9.675144,-0.0012126416,0.0045906304,0.0006043492,-26496.0,-29699.5,-13693.5,
19.652,-1.3293018,-0.3403995,9.677539,-0.0068083555,0.0009933859,0.0011372734,-25984.0,-28931.5,-13693.5,
19.770,-1.1593134,-0.27815026,9.770912,-0.004276961,0.006589096,-0.0045916692,-26752.0,-29187.5,-14205.5,
19.886,-1.2718408,-0.06746051,9.766124,-0.00347757336,-0.0024706236,0.00020465534,-27264.0,-29699.5,-13437.5,
20.010,-1.166496,-0.1895648,9.749365,-0.00361080468,0.0009933859,-0.0024599694,-26240.0,-30211.5,-14973.5,
20.126,-1.1497366,-0.12492134,9.749365,-0.0040104984,0.0029918552,-0.0020602756,-26240.0,-29443.5,-13949.5,
20.244,-1.2478988,-0.196747384,9.770912,-0.00414373,-0.0006053895,0.00286928,-26752.0,-29955.5,-14205.5,
20.359,-1.2191684,-0.196747384,9.703875,-0.00028002262,0.0064558648,0.0012705056,-26496.0,-29187.5,-13949.5,
20.484,-1.1928322,-0.0914025136,9.711058,-0.0030778944,0.0011266135,-0.0008611949,-26240.0,-28931.5,-14205.5,
20.602,-1.319725,-0.486445784,9.758942,-0.0064086468,-0.0011383183,-0.0005947314,-25472.0,-28931.5,-13693.5,
20.719,-1.1377656,-0.045912684,9.713451,-0.00361080468,0.0021924674,-0.0011276575,-26496.0,-28931.5,-14461.5,
20.838,-1.2287452,-0.25181404,9.720634,-0.0022784918,-0.0011383183,0.00073758052,-25728.0,-29187.5,-14461.5,
20.956,-1.2191684,-0.060277896,9.682327,-0.0058757364,0.0012598485,-0.0013941191,-25984.0,-28931.5,-15485.5,
21.080,-1.1281888,-0.15125756,9.682327,-0.0054760424,0.0020592324,-0.0011276575,-25984.0,-28675.5,-14973.5,
21.197,-1.262264,-0.10097933,9.655991,-0.0010794252,-0.0022041648,0.00073758052,-26240.0,-29187.5,-15229.5,
21.314,-1.2407162,-0.16083437,9.79246,-0.0020120292,0.0023256988,-0.0015273513,-26496.0,-29443.5,-15741.5,
21.431,-1.2694466,-0.16322857,9.677539,-0.00414373,-0.00273709,-0.0011276575,-25728.0,-29187.5,-15997.5,
21.547,-1.2814176,-0.24223724,9.737393,-0.00014679134,0.004723858,-0.0012608878,-25728.0,-28675.5,-16253.5,
21.670,-1.2838118,-0.27815026,9.732605,-0.0017455816,0.0053900144,0.0018034298,-26240.0,-28931.5,-14973.5,
21.788,-1.0060844,0.01633656,9.770912,-0.0050763636,0.0035247804,-6.180722e-05,-26496.0,-28931.5,-15229.5,
21.905,-1.2909946,-0.33082268,9.869075,-0.0045434236,-0.0052684844,0.0012705056,-25728.0,-29187.5,-16509.5,
22.023,-1.166496,-0.08900832,9.622472,-0.0022784918,-0.0003389269,0.0011372734,-25984.0,-29955.5,-15741.5,
22.138,-1.2215626,-0.13210395,9.679933,0.001451984,-0.0004721582,-0.0043252064,-26496.0,-30211.5,-15997.5,
22.261,-1.2215626,-0.1943532,9.744576,-0.006675124,0.0020592324,0.00047111884,-26496.0,-30979.5,-16509.5,
22.376,-1.2478988,-0.13210395,9.739788,-0.0013458729,0.006056171,-0.0037922818,-26496.0,-30979.5,-16253.5,
22.495,-1.2239568,-0.1871706,9.806826,-0.0037440508,-0.00313678,0.00073758052,-26496.0,-30979.5,-15741.5,
22.610,-1.178467,-0.1871706,9.660779,-0.004276961,0.0053900144,-0.0035258192,-27264.0,-31491.5,-15485.5,
22.731,-1.190438,-0.1895648,9.71824,-0.00414373,0.0033915452,-0.0031261258,-27264.0,-30467.5,-15229.5,
22.845,-1.238322,-0.17759377,9.76373,0.000119671224,-0.0030035526,-0.0024599694,-27008.0,-31235.5,-15485.5,
22.964,-1.2670524,-0.16562277,9.751759,-0.007474512,-0.000871852064,0.00073758052,-27008.0,-31747.5,-15997.5,
23.082,-1.2526872,-0.0052112564,9.713451,-0.004276961,0.0024589264,-0.0057907504,-27520.0,-31235.5,-15997.5,
23.199,-1.2000148,-0.110556132,9.687116,-0.0053428112,0.0032583176,-0.006190444,-26752.0,-32003.5,-15485.5,
23.322,-1.2191684,-0.13928655,9.744576,-0.0013458729,0.0077881776,-0.002326738,-27008.0,-31491.5,-15741.5,
23.439,-1.1329772,-0.21111262,9.706269,-0.0030778944,0.0021924674,0.003801899,-26752.0,-31491.5,-16253.5,
23.556,-1.2095916,-0.16562277,9.699086,-0.0032111108,0.0008601546,-0.00046150108,-26752.0,-31491.5,-15485.5,
23.673,-1.21438,-0.179988,9.682327,-0.002411738,0.0063226336,-0.0001950385,-26752.0,-30979.5,-16509.5,
23.787,-1.2239568,-0.25181404,9.706269,-0.003344342,-0.003669709,-0.006190444,-26752.0,-31491.5,-16765.5,
23.907,-1.1976206,-0.191959,9.670356,-0.0040104984,-0.000871852064,-0.0031261258,-27008.0,-31235.5,-15997.5,
24.024,-1.3125424,-0.30209224,9.708663,-0.008007437,6.0766936e-05,-0.0011276575,-27264.0,-31747.5,-16509.5,
24.141,-1.1976206,-0.15125756,9.636837,-0.0057424904,0.0057897084,0.0020698932,-27008.0,-31235.5,-16253.5,
24.258,-1.202409,-0.175199568,9.735,-0.00347757336,0.0013930798,-0.0025932006,-27264.0,-31235.5,-16253.5,
24.376,-1.1281888,-0.24223724,9.859498,-0.0021452606,-0.004602328,0.004601286,-27008.0,-30979.5,-16253.5,
24.498,-1.1832554,-0.27336186,9.744576,-0.00081294776,0.0009933859,-0.0005947314,-26496.0,-29187.5,-15229.5,
24.614,-1.2359278,-0.235054608,9.770912,-0.0045434236,0.0043241644,-0.0036590504,-25984.0,-27907.5,-14461.5,
24.732,-1.2287452,-0.14886336,9.665567,-0.0022784918,0.0040577016,-0.001793813,-25984.0,-27907.5,-14973.5,
24.848,-1.2478988,-0.06746051,9.742182,-0.0037440508,0.0043241644,0.0015369672,-26240.0,-28163.5,-15229.5,
24.971,-1.2359278,-0.1847764,9.687116,-0.0004132688,0.007122021,-0.0003282698,-25216.0,-27651.5,-15485.5,
25.086,-1.1042468,-0.10097933,9.751759,-0.008407116,0.009386953,0.00020465534,-25472.0,-27907.5,-15741.5,
25.202,-1.21438,-0.21829522,9.720634,-0.00067971648,0.000460457068,-0.0012608878,-26240.0,-27651.5,-14205.5,
25.320,-1.118612,-0.16562277,9.660779,-0.00028002262,0.0020592324,-0.0012608878,-25472.0,-28419.5,-15997.5,
25.437,-1.1760728,-0.21111262,9.751759,-0.004676655,0.011785116,-0.0011276575,-25472.0,-27907.5,-15485.5,
25.559,-1.2119858,-0.25181404,9.732605,-0.0026781856,-0.0006053895,-0.0015273513,-25472.0,-27651.5,-15741.5,
25.676,-1.202409,-0.16562277,9.778095,0.00185167792,-0.00273709,-0.002326738,-26496.0,-28163.5,-15229.5,
25.792,-1.1377656,-0.31406328,9.725423,-0.005609274,-0.0028703212,0.0024695872,-25728.0,-28419.5,-15485.5,
25.909,-1.2766292,-0.21350682,9.675144,-0.0010794252,0.0021924674,-0.0009944253,-25728.0,-28163.5,-14461.5,
26.026,-1.2095916,-0.235054608,9.665567,-0.0016123354,0.008454334,-0.001793813,-25216.0,-27907.5,-14205.5,
26.149,-1.2455046,-0.31885168,9.703875,0.0026510656,0.0076549464,0.0015369672,-25984.0,-27907.5,-14205.5,
26.266,-1.202409,-0.21350682,9.816402,-0.0029446482,0.001526311,-0.0021935068,-25728.0,-27907.5,-15741.5,
26.382,-1.1521308,-0.13689235,9.782884,-0.001878798,0.0003272295,-0.0003282698,-24192.0,-27651.5,-15741.5,
26.497,-1.178467,-0.06985471,9.727817,0.0010522902,0.0012598485,-0.0012608878,-21888.0,-26627.5,-14973.5,
26.613,-1.2095916,-0.1847764,9.723028,-0.0032111108,0.0028586238,-0.0012608878,-20096.0,-28419.5,-13949.5,
26.736,-1.2119858,-0.179988,9.794854,-0.0049431176,0.00059369208,0.0020698932,-19840.0,-29955.5,-14717.5,
26.852,-1.2335336,-0.172805368,9.727817,-0.0062754304,0.003924474,-0.0040587444,-18560.0,-30467.5,-14205.5,
26.969,-1.1808612,-0.203929984,9.730211,-0.00014679134,0.0036580116,-0.000727963636,-19072.0,-29955.5,-15485.5,
27.088,-1.2311394,-0.15844018,9.699086,-0.0026781856,0.0031250828,0.00087081176,-19328.0,-28419.5,-12925.5,
27.206,-1.2239568,-0.175199568,9.64402,-0.003344342,0.001526311,-0.000727963636,-18560.0,-27651.5,-13181.5,
27.329,-1.2215626,-0.17759377,9.720634,-0.0038772672,0.0035247804,-0.0052578252,-19072.0,-27395.5,-12925.5,
27.449,-1.2215626,-0.172805368,9.708663,-0.00014679134,0.0023256988,-0.0015273513,-19328.0,-26627.5,-12925.5,
27.569,-1.21438,-0.1871706,9.715846,0.0011855215,0.003924474,-0.0003282698,-18560.0,-27139.5,-13693.5,
27.683,-1.2455046,-0.191959,9.725423,-0.001878798,0.005256787,-0.0008611949,-19072.0,-26883.5,-12413.5,
27.803,-1.1712844,-0.172805368,9.744576,-0.0016123354,0.0020592324,-0.0001950385,-18560.0,-27139.5,-13181.5,
27.921,-1.2909946,-0.27096764,9.732605,-0.0037440508,0.0033915452,-0.00046150108,-18816.0,-27139.5,-12669.5,
28.039,-1.21438,-0.175199568,9.859498,-0.0040104984,0.0019260049,-6.180722e-05,-18816.0,-27395.5,-13437.5,
28.157,-1.2431104,-0.168016976,9.742182,-0.0014791042,0.0041909368,-0.002726432,-18816.0,-27651.5,-13181.5,
28.274,-1.274235,-0.203929984,9.787672,-0.0049431176,-0.0035364776,0.0015369672,-19328.0,-27395.5,-13693.5,
28.398,-1.2550814,-0.25660244,9.737393,0.000119671224,0.008321103,-0.00046150108,-18560.0,-26883.5,-13437.5,
28.516,-1.1832554,-0.1871706,9.720634,-0.0020120292,0.0024589264,-0.0012608878,-18304.0,-26883.5,-12669.5,
28.633,-1.1856496,-0.27096764,9.735,-0.0054760424,-0.0024706236,0.00073758052,-18560.0,-26627.5,-12157.5,
28.750,-1.190438,-0.196747384,9.682327,-0.0017455816,0.0009933859,0.0018034298,-18816.0,-26371.5,-11645.5,
28.873,-1.2814176,-0.32364008,9.735,-0.008407116,0.00059369208,7.142406e-05,-18816.0,-26627.5,-13437.5,
28.994,-1.307754,-0.25660244,9.74697,-0.00347757336,0.0013930798,-0.0057907504,-19072.0,-26883.5,-13181.5,
29.111,-1.226351,-0.093796712,9.787672,-0.00347757336,0.0012598485,7.142406e-05,-18816.0,-26883.5,-12925.5,
29.228,-1.2311394,-0.11295034,9.773307,-0.0020120292,0.0019260049,-0.0003282698,-19328.0,-27139.5,-13693.5,
29.347,-1.3364844,-0.208718384,9.735,-0.0025449544,0.00698879,-0.0012608878,-18816.0,-26883.5,-13181.5,
29.464,-1.2574756,-0.24941984,9.706269,-0.0005464852,-0.0026038588,0.003801899,-19072.0,-26371.5,-12669.5,
29.586,-1.2119858,-0.172805368,9.708663,-0.0005464852,0.0016595423,0.00020465534,-18816.0,-26883.5,-13181.5,
29.704,-1.2431104,-0.21829522,9.749365,-0.0030778944,-0.0010050833,-0.0049913632,-18816.0,-26627.5,-13181.5,
29.821,-1.2119858,-0.13928655,9.739788,-0.003344342,0.0028586238,-0.000727963636,-19072.0,-27395.5,-12925.5,
29.940,-1.1138236,-0.239843016,9.790066,-0.0025449544,0.00059369208,-0.0005947314,-18816.0,-27907.5,-13437.5,
30.063,-1.1521308,-0.237448816,9.713451,-0.0060089676,0.0024589264,-0.004458438,-18816.0,-27651.5,-13181.5,
30.181,-1.2670524,-0.29012126,9.787672,-0.0005464852,0.001526311,-0.0008611949,-18304.0,-27395.5,-13181.5,
30.297,-1.3269076,-0.0052112564,9.744576,-0.0021452606,0.004857093,-0.000727963636,-18816.0,-28163.5,-12669.5,
30.415,-1.2574756,-0.15125756,9.744576,-0.00094617908,0.004857093,0.0011372734,-18816.0,-27395.5,-12413.5,
30.532,-1.2048032,-0.11773874,9.775701,-0.0037440508,0.0040577016,-0.000727963636,-18816.0,-27651.5,-13437.5,
30.656,-1.2478988,-0.12252714,9.737393,-0.0020120292,-0.0024706236,-0.0045916692,-18304.0,-28163.5,-13693.5,
30.774,-1.2000148,-0.168016976,9.754153,-0.0017455816,0.0016595423,0.00073758052,-18560.0,-28675.5,-12925.5,
30.893,-1.226351,-0.168016976,9.785277,-0.00361080468,0.0032583176,0.000337886632,-18048.0,-28419.5,-13693.5,
31.013,-1.2814176,-0.26139084,9.687116,-0.0038772672,0.010719266,-0.001793813,-18304.0,-27651.5,-13181.5,
31.129,-1.2095916,-0.191959,9.713451,-0.0045434236,0.000460457068,-0.0028596632,-18304.0,-27139.5,-12413.5,
31.252,-1.2455046,-0.27336186,9.665567,-0.008806825,0.0077881776,-0.0003282698,-18560.0,-27651.5,-12669.5,
31.369,-1.250293,-0.10576773,9.687116,-0.00014679134,0.0008601546,-0.0016605817,-18304.0,-27907.5,-13181.5,
31.485,-1.2718408,-0.13210395,9.658385,-0.00361080468,0.0023256988,0.0012705056,-18816.0,-26883.5,-13437.5,
31.604,-1.2646582,0.009153955,9.790066,0.0015852153,-0.0028703212,-0.0024599694,-18816.0,-27651.5,-12925.5,
31.722,-1.1880438,-0.1871706,9.701481,-0.00414373,-0.0060678684,0.000337886632,-18816.0,-28163.5,-13437.5,
31.844,-1.3963394,-0.26139084,9.670356,-0.0032111108,0.006589096,-0.005524288,-18816.0,-27395.5,-12925.5,
31.960,-1.3101482,-0.201535792,9.689509,-0.006142199,0.0012598485,0.003801899,-18816.0,-27395.5,-13181.5,
32.077,-1.1641018,0.04506698,9.71824,0.008912936,0.0021924674,0.0015369672,-19072.0,-27139.5,-12925.5,
32.193,-1.1569192,-0.10576773,9.773307,-0.0032111108,0.0019260049,-0.0040587444,-20096.0,-28931.5,-13437.5,
32.318,-1.2167742,-0.19914159,9.711058,0.0005193651,0.0027253888,-0.0020602756,-19584.0,-28419.5,-13693.5,
32.437,-1.2071974,-0.19914159,9.706269,-0.002411738,-0.0006053895,-0.0028596632,-19840.0,-27651.5,-13949.5,
32.554,-1.238322,-0.168016976,9.727817,0.0025178344,0.005656477,-0.0015273513,-19840.0,-27907.5,-13949.5,
32.671,-1.2407162,-0.22068942,9.679933,-0.0021452606,0.001526311,-0.0043252064,-20352.0,-27907.5,-13949.5,
32.789,-1.238322,-0.14886336,9.701481,0.000785827636,0.0025921612,0.000337886632,-21120.0,-28419.5,-13949.5,
32.914,-1.3245134,-0.21829522,9.83795,0.0003861338,-0.0039361716,-0.0013941191,-21376.0,-28163.5,-12925.5,
33.030,-1.202409,-0.1871706,9.711058,-0.0073412808,0.0029918552,-0.0035258192,-21376.0,-28163.5,-12925.5,
33.146,-1.2239568,-0.172805368,9.703875,-0.003344342,0.0013930798,0.0018034298,-21376.0,-28163.5,-14461.5,
33.264,-1.2071974,-0.09619093,9.816402,-0.0010794252,-7.246435e-05,-0.0008611949,-21120.0,-28419.5,-13437.5,
33.379,-1.21438,-0.13449815,9.691904,-0.0030778944,0.006056171,0.001004043,-20608.0,-28419.5,-13437.5,
33.499,-1.1856496,-0.16083437,9.679933,-0.00067971648,0.0049903208,-0.0005947314,-21376.0,-28163.5,-13437.5,
33.617,-1.2311394,-0.23266042,9.670356,-0.006142199,0.00179276984,-0.0008611949,-21120.0,-28931.5,-13437.5,
33.734,-1.1449482,-0.206324184,9.730211,-0.0040104984,0.0012598485,-0.0003282698,-21376.0,-28931.5,-13437.5,
33.852,-1.3005714,-0.25181404,9.739788,-0.0014791042,0.0019260049,-0.0028596632,-21632.0,-28931.5,-13181.5,
33.971,-1.1114294,-0.12731555,9.737393,-0.0026781856,0.012451272,-0.00046150108,-22656.0,-28675.5,-13181.5,
34.094,-1.1928322,-0.15844018,9.79246,-0.002411738,-0.000738620736,0.00020465534,-23168.0,-28931.5,-13693.5,
34.212,-1.3580322,0.095345216,9.675144,-0.008806825,0.0013930798,-0.0028596632,-23168.0,-27907.5,-14205.5,
34.329,-1.21438,-0.002817057,9.739788,-0.0058757364,-0.0024706236,-0.002326738,-23680.0,-28675.5,-14205.5,
34.444,-1.274235,-0.170411168,9.720634,0.00185167792,0.0023256988,-0.0008611949,-23680.0,-28163.5,-14717.5,
34.568,-1.1952264,-0.06267209,9.636837,-0.0037440508,0.008187875,-0.000727963636,-22912.0,-28163.5,-15741.5,
34.685,-1.2311394,-0.17759377,9.778095,-0.00347757336,0.004723858,-0.0016605817,-22912.0,-28419.5,-13693.5,
34.804,-1.1880438,-0.235054608,9.679933,-0.005609274,0.0031250828,-0.000727963636,-23168.0,-28419.5,-14973.5,
34.923,-1.1138236,-0.13689235,9.809219,-0.0025449544,-7.246435e-05,-0.0013941191,-23168.0,-28931.5,-15229.5,
35.041,-1.2359278,-0.24702564,9.766124,-0.0026781856,6.0766936e-05,0.0012705056,-23168.0,-28419.5,-14973.5,
35.165,-1.1593134,-0.14646916,9.696692,-0.0040104984,0.0053900144,-0.0016605817,-22912.0,-28419.5,-14461.5,
35.282,-1.226351,-0.175199568,9.735,-0.0025449544,-7.246435e-05,-0.000727963636,-23168.0,-28419.5,-14461.5,
35.400,-1.2071974,-0.1871706,9.694298,-0.0068083555,-0.000738620736,7.142406e-05,-23424.0,-28163.5,-13949.5,
35.518,-1.2048032,-0.1871706,9.770912,-0.00028002262,0.0053900144,-0.0003282698,-23424.0,-28931.5,-14205.5,
35.634,-1.2191684,-0.170411168,9.770912,0.003317222,0.0011266135,0.0024695872,-23680.0,-28419.5,-13693.5,
35.757,-1.1808612,-0.13928655,9.732605,-0.003344342,0.0044573956,-0.0008611949,-23168.0,-28419.5,-14205.5,
35.874,-1.3029656,-0.14646916,9.677539,-0.0064086468,0.0033915452,-0.0025932006,-23936.0,-28419.5,-13949.5,
35.991,-1.1880438,-0.15365176,9.835556,-0.00028002262,0.000460457068,0.0044680556,-23680.0,-28931.5,-13437.5,
36.110,-1.3053598,-0.08661412,9.742182,-0.00933975,0.0053900144,-0.0012608878,-24192.0,-28931.5,-14461.5,
36.226,-1.1377656,-0.1871706,9.703875,-0.0025449544,0.0012598485,-0.0012608878,-23424.0,-28163.5,-13693.5,
36.364,-1.2335336,-0.168016976,9.737393,-0.0044102072,0.0020592324,-0.002726432,-23424.0,-27907.5,-14973.5,
36.482,-1.2191684,-0.1847764,9.706269,0.000919044,0.0033915452,0.00047111884,-22912.0,-28163.5,-15741.5,
36.597,-1.2071974,-0.203929984,9.703875,-0.004276961,0.00059369208,-0.003259357,-23168.0,-28163.5,-14205.5,
36.715,-1.1880438,-0.191959,9.720634,-0.0037440508,0.0025921612,-0.0005947314,-23168.0,-28931.5,-15741.5,
36.836,-1.2574756,-0.172805368,9.749365,-0.0004132688,0.0064558648,-0.0003282698,-22144.0,-29443.5,-16253.5,
36.954,-1.2215626,-0.13210395,9.74697,-0.004809886,0.0012598485,0.00047111884,-22656.0,-29187.5,-14973.5,
37.071,-1.2167742,-0.16562277,9.703875,-0.0045434236,0.00072692332,-0.0012608878,-21888.0,-28931.5,-14205.5,
37.189,-1.2119858,-0.1871706,9.775701,-0.002811417,0.0040577016,-0.002326738,-21120.0,-29443.5,-14717.5,
37.304,-1.2814176,-0.196747384,9.667962,-0.0026781856,0.003924474,0.00047111884,-20352.0,-29699.5,-14717.5,
37.427,-1.2287452,-0.15365176,9.667962,-0.0060089676,0.0064558648,0.0006043492,-20608.0,-29955.5,-14461.5,
37.543,-1.2478988,-0.1847764,9.79246,0.001451984,-7.246435e-05,0.0006043492,-19840.0,-29443.5,-13437.5,
37.657,-1.2000148,-0.175199568,9.749365,-0.00414373,-0.0035364776,0.000337886632,-20096.0,-30211.5,-13949.5,
37.775,-1.2239568,-0.14886336,9.725423,-0.003344342,-0.000205695632,-0.002726432,-20352.0,-29955.5,-14717.5,
37.892,-1.1593134,-0.14168076,9.814008,-0.002411738,0.0003272295,-0.0029928944,-20352.0,-29955.5,-13437.5,
38.014,-1.2071974,-0.201535792,9.737393,-0.0057424904,0.0035247804,-0.0009944253,-20096.0,-30211.5,-14205.5,
38.134,-1.2790234,-0.24941984,9.995967,-0.0013458729,-0.0048687904,-0.0021935068,-20096.0,-29955.5,-12413.5,
38.251,-1.2215626,-0.23026622,9.74697,-0.0038772672,-0.0010050833,-0.0009944253,-20352.0,-30467.5,-13693.5,
38.368,-1.2718408,-0.1823822,9.768518,-0.0029446482,0.003791239,-0.004191975,-20352.0,-30211.5,-13949.5,
38.484,-1.2909946,-0.235054608,9.809219,-0.00361080468,-0.0012715459,-0.00046150108,-20352.0,-29443.5,-12925.5,
38.610,-1.154525,-0.25420824,9.708663,-0.002811417,0.005656477,0.0011372734,-19328.0,-30467.5,-13437.5,
38.725,-1.226351,-0.191959,9.711058,-0.0016123354,0.000460457068,-0.0028596632,-20096.0,-30467.5,-13181.5,
38.842,-1.2335336,-0.22547782,9.706269,-0.0040104984,0.0032583176,-0.0015273513,-19584.0,-30467.5,-14717.5,
38.959,-1.2215626,-0.16562277,9.696692,-1.3560057e-05,0.0036580116,0.0014037369,-20096.0,-30211.5,-13949.5,
39.077,-1.1114294,-0.048306884,9.701481,-0.0044102072,0.005123552,-0.0021935068,-20096.0,-29955.5,-13693.5,
39.199,-1.2718408,-0.10576773,9.701481,-0.008007437,0.0044573956,-0.0049913632,-20864.0,-31235.5,-14717.5,
39.316,-1.2478988,-0.21350682,9.778095,-0.0037440508,0.0036580116,-0.00046150108,-21376.0,-32259.5,-14461.5,
39.434,-1.2646582,-0.21590102,9.691904,-0.0040104984,0.001526311,7.142406e-05,-21376.0,32764.5,-13437.5,
39.550,-1.2191684,-0.15365176,9.782884,-0.0050763636,0.0033915452,-0.0005947314,-21888.0,-32515.5,-13181.5,
39.672,-1.2167742,-0.15604596,9.739788,-0.00014679134,0.0068555624,-0.0016605817,-21632.0,32252.5,-13693.5,
39.790,-1.1952264,-0.17759377,9.739788,-0.001878798,-0.0020709336,-0.0048581316,-21632.0,32764.5,-14205.5,
39.908,-1.2167742,-0.1871706,9.71824,-0.0057424904,0.00019399822,-0.0009944253,-21376.0,32764.5,-13949.5,
40.030,-1.1162178,-0.11295034,9.744576,-0.0050763636,0.0003272295,-0.000727963636,-21632.0,-32259.5,-15997.5,
40.148,-1.1712844,-0.03154748,9.830768,0.000919044,0.006189406,0.00020465534,-21376.0,32508.5,-14205.5,
40.269,-1.2718408,-0.17759377,9.749365,-0.0021452606,0.0075217187,0.000337886632,-21888.0,32508.5,-14461.5,
40.391,-1.1688902,-0.16322857,9.677539,-1.3560057e-05,0.0036580116,-0.0003282698,-21632.0,-32515.5,-14205.5,
40.508,-1.1617076,-0.175199568,9.639232,-0.0029446482,0.004857093,-0.0005947314,-22144.0,31996.5,-14973.5,
40.626,-1.2359278,-0.175199568,9.756547,-0.002411738,0.00179276984,0.000337886632,-21632.0,32252.5,-15229.5,
40.746,-1.21438,-0.170411168,9.71824,-0.00520958,0.0041909368,-0.0013941191,-21120.0,32508.5,-14717.5,
40.867,-1.250293,-0.038730084,9.723028,-0.0053428112,-0.0030035526,0.0018034298,-21888.0,32764.5,-14717.5,
40.984,-1.2478988,-0.48883998,9.744576,-0.0013458729,-7.246435e-05,-0.0015273513,-22144.0,32764.5,-14205.5,
41.103,-1.2167742,-0.12731555,9.725423,0.0010522902,0.0055232496,0.00087081176,-21632.0,-32515.5,-13437.5,
41.221,-1.2167742,-0.16083437,9.737393,-0.0038772672,-0.0039361716,-0.0028596632,-21888.0,32764.5,-12925.5,
41.338,-1.2359278,-0.191959,9.715846,-0.0004132688,0.00059369208,-0.000727963636,-21632.0,32764.5,-14205.5,
41.461,-1.21438,-0.11295034,9.744576,-0.0010794252,0.00179276984,-0.0028596632,-20864.0,-32515.5,-14461.5,
41.578,-1.2574756,-0.1943532,9.699086,-0.00361080468,0.0019260049,-0.0009944253,-21632.0,32764.5,-13949.5,
41.697,-1.262264,-0.09858513,9.67275,-0.00694158636,0.0033915452,-0.0029928944,-21632.0,-32515.5,-14205.5,
41.813,-1.1712844,-0.1871706,9.723028,-0.0026781856,0.0021924674,-0.007123063,-21888.0,32508.5,-14717.5,
41.935,-1.2526872,-0.21829522,9.751759,0.000119671224,0.0021924674,-0.0040587444,-21376.0,31996.5,-14973.5,
42.054,-1.2191684,-0.15604596,9.730211,-0.00067971648,0.00019399822,-0.005124594,-21632.0,32508.5,-14461.5,
42.171,-1.2526872,-0.21590102,9.703875,0.0015852153,-0.004469093,0.001004043,-21888.0,32764.5,-14461.5,
42.287,-1.2095916,-0.15125756,9.804431,0.000919044,0.004857093,-0.0052578252,-22400.0,32764.5,-14461.5,
42.402,-1.1521308,-0.32124588,9.799643,-0.0020120292,-0.0010050833,-0.0003282698,-23168.0,-32515.5,-16765.5,
42.525,-1.2526872,-0.208718384,9.751759,-0.0057424904,-0.0020709336,-0.0021935068,-22400.0,32764.5,-15485.5,
42.643,-1.2311394,-0.168016976,9.775701,-0.0017455816,0.0041909368,-0.0012608878,-22656.0,-31491.5,-15997.5,
42.762,-1.2455046,-0.191959,9.711058,-0.001878798,0.00179276984,-0.0005947314,-23680.0,-32259.5,-17789.5,
42.878,-1.1976206,-0.175199568,9.653597,-0.00414373,0.0025921612,-0.0001950385,-24448.0,-32259.5,-17789.5,
42.994,-1.2167742,-0.16322857,9.735,-0.003344342,0.00072692332,0.0006043492,-23680.0,32764.5,-16509.5,
43.116,-1.1808612,-0.16322857,9.754153,-0.0020120292,0.00179276984,-0.0016605817,-24192.0,32764.5,-15997.5,
43.235,-1.2095916,-0.19914159,9.739788,-0.008806825,0.0012598485,-0.0005947314,-24448.0,31740.5,-16253.5,
43.353,-1.2095916,-0.168016976,9.751759,-0.0029446482,0.0011266135,-0.0053910568,-24704.0,31740.5,-16765.5,
43.471,-1.2359278,-0.14168076,9.572193,-0.00694158636,0.0076549464,-0.0048581316,-24192.0,31996.5,-15997.5,
43.590,-1.2431104,-0.1847764,9.766124,-0.0064086468,-0.0003389269,0.0016701994,-24704.0,31996.5,-16509.5,
43.711,-1.2455046,-0.15844018,9.723028,-0.0038772672,-0.0010050833,0.00073758052,-24704.0,31996.5,-16765.5,
43.829,-1.250293,-0.208718384,9.775701,-0.0062754304,-0.000871852064,-0.0001950385,-25216.0,31484.5,-16253.5,
43.948,-1.2287452,-0.16562277,9.64402,0.00065259636,0.003791239,0.000337886632,-25472.0,31996.5,-16509.5,
44.065,-1.2359278,-0.15125756,9.787672,-0.00774095936,0.004857093,0.0014037369,-24448.0,30972.5,-15997.5,
44.183,-1.2287452,-0.196747384,9.758942,0.0002528876,0.0031250828,-0.005657519,-24704.0,31996.5,-16253.5,
44.306,-1.2478988,-0.172805368,9.655991,-0.0022784918,0.0076549464,-6.180722e-05,-24448.0,31228.5,-17021.5,
44.424,-1.2167742,-0.1847764,9.735,-0.0029446482,0.0011266135,-0.0036590504,-24448.0,30460.5,-16765.5,
44.541,-1.2287452,-0.15844018,9.754153,0.0005193651,-0.00180447468,0.001004043,-24448.0,30716.5,-17021.5,
44.658,-1.2670524,-0.196747384,9.727817,-0.004809886,0.0024589264,-0.003259357,-24192.0,31228.5,-16509.5,
44.781,-1.2407162,-0.15844018,9.713451,-0.00361080468,0.0008601546,-6.180722e-05,-24448.0,31484.5,-17021.5,
44.898,-1.2478988,-0.201535792,9.770912,-0.00347757336,0.0016595423,-0.0029928944,-24960.0,31228.5,-16765.5,
45.018,-1.2048032,-0.16322857,9.691904,0.00065259636,0.005256787,-0.004458438,-23424.0,31228.5,-18045.5,
45.134,-1.2191684,-0.16083437,9.682327,-0.0057424904,0.0045906304,-0.00046150108,-24448.0,31484.5,-16765.5,
45.251,-1.2574756,-0.172805368,9.780489,0.0003861338,-0.00180447468,-0.0029928944,-24192.0,30972.5,-17021.5,
45.376,-1.2287452,-0.16562277,9.74697,-0.0021452606,-0.0043358652,-0.0019270442,-24960.0,31228.5,-17021.5,
45.493,-1.178467,-0.14646916,9.596135,-0.010405585,0.005256787,7.142406e-05,-24704.0,30972.5,-17277.5,
45.608,-1.2886004,-0.1871706,9.711058,-0.00014679134,-0.0012715459,-0.001793813,-23936.0,31484.5,-16253.5,
45.725,-1.2048032,-0.17759377,9.711058,-0.00414373,0.001526311,-0.0024599694,-23680.0,31228.5,-15741.5,
45.841,-1.2311394,-0.12731555,9.76373,-0.0020120292,-7.246435e-05,-0.003925513,-24192.0,31484.5,-15997.5,
45.978,-1.1210062,-0.15365176,9.318408,-0.00774095936,0.01658144,0.00047111884,-23936.0,31484.5,-16253.5,
46.095,-1.2048032,-0.1895648,9.646414,-0.0038772672,0.008587565,-0.0011276575,-24448.0,32252.5,-16509.5,
46.211,-1.2239568,-0.21590102,9.701481,0.0025178344,0.0021924674,0.0020698932,-24448.0,31740.5,-17021.5,
46.328,-1.2359278,-0.22787202,9.660779,-0.00014679134,0.0032583176,0.0016701994,-24448.0,31484.5,-16765.5,
46.446,-1.226351,-0.22787202,9.615289,-0.004276961,0.0044573956,-0.005657519,-24448.0,30204.5,-17277.5,
46.567,-1.2000148,-0.1823822,9.653597,0.0013187528,0.000460457068,0.0006043492,-24192.0,30460.5,-16253.5,
46.684,-1.2526872,-0.235054608,9.730211,0.0002528876,0.0041909368,-0.004458438,-24192.0,30204.5,-16765.5,
46.801,-1.1880438,-0.1895648,9.677539,-0.0010794252,-7.246435e-05,0.00193666116,-24192.0,30204.5,-17021.5,
46.918,-1.2478988,-0.15604596,9.732605,0.0003861338,-0.0003389269,-0.00046150108,-24704.0,30204.5,-17021.5,
47.034,-1.2095916,-0.206324184,9.756547,-0.002811417,0.0059229432,0.00073758052,-24192.0,29948.5,-17789.5,
47.157,-1.1617076,-0.17759377,9.696692,-0.002811417,0.0013930798,-0.0011276575,-24192.0,30204.5,-16765.5,
47.276,-1.2359278,-0.14168076,9.74697,-0.0060089676,-0.0020709336,-0.0011276575,-24192.0,30716.5,-15485.5,
47.393,-1.1952264,-0.13928655,9.773307,-0.0025449544,6.0766936e-05,-6.180722e-05,-25216.0,30972.5,-16509.5,
47.510,-1.1976206,-0.11534454,9.67275,0.00065259636,0.0033915452,-0.002726432,-24960.0,30460.5,-17021.5,
47.632,-1.1401598,-0.108161928,9.737393,-0.0013458729,0.0023256988,-0.0013941191,-25216.0,30204.5,-16253.5,
47.752,-1.2167742,-0.172805368,9.658385,-0.0010794252,-0.0020709336,-0.0025932006,-25472.0,29692.5,-16253.5,
47.870,-1.2287452,-0.203929984,9.74697,0.0039833636,0.00019399822,-0.0001950385,-24704.0,30204.5,-15997.5,
47.988,-1.1976206,-0.13210395,9.76373,-0.00081294776,0.0021924674,-0.0024599694,-25472.0,30204.5,-16253.5,
48.105,-1.238322,-0.1943532,9.811614,-0.0044102072,-0.000871852064,0.0011372734,-25216.0,29180.5,-16509.5,
48.228,-1.1952264,-0.170411168,9.663174,0.004249841,0.006589096,-0.0016605817,-25216.0,29436.5,-18045.5,
48.345,-1.2239568,-0.14886336,9.74697,-0.0037440508,-0.0004721582,0.0014037369,-25472.0,30460.5,-17021.5,
48.461,-1.2239568,-0.22068942,9.677539,-0.0013458729,0.0029918552,-0.00046150108,-24704.0,29692.5,-17021.5,
48.578,-1.1712844,-0.179988,9.703875,-0.0044102072,0.0024589264,0.00073758052,-25216.0,29692.5,-17533.5,
48.694,-1.2311394,-0.19914159,9.794854,-0.00361080468,0.0029918552,-0.000727963636,-24960.0,29692.5,-17533.5,
48.820,-1.2335336,-0.21829522,9.703875,-0.00720804936,6.0766936e-05,-0.001793813,-25216.0,29436.5,-17789.5,
48.938,-1.202409,-0.196747384,9.684721,-0.004676655,0.001526311,-0.0031261258,-25216.0,29948.5,-17021.5,
49.054,-1.226351,-0.15125756,9.751759,-0.0026781856,0.008321103,0.00087081176,-25728.0,29692.5,-17277.5,
49.171,-1.2191684,-0.19914159,9.768518,-0.006142199,0.00179276984,-0.0009944253,-24960.0,29692.5,-17533.5,
49.289,-1.2071974,-0.203929984,9.711058,-0.0064086468,0.0019260049,0.0011372734,-25728.0,28668.5,-16509.5,
49.414,-1.3293018,-0.19914159,9.902594,0.00065259636,-0.00939865,-0.0015273513,-25216.0,29692.5,-17533.5,
49.532,-1.1712844,-0.13210395,9.737393,-0.0032111108,0.0075217187,0.0020698932,-25472.0,29180.5,-18301.5,
49.650,-1.2167742,-0.22787202,9.773307,-0.0062754304,0.001526311,-0.0008611949,-25728.0,29180.5,-17533.5,
49.766,-1.2167742,-0.1871706,9.708663,-0.004276961,0.0057897084,0.0016701994,-25472.0,28924.5,-17277.5,
49.882,-1.1712844,-0.15604596,9.737393,-0.00067971648,0.008720797,-0.0003282698,-25472.0,29436.5,-16765.5,
50.004,-1.2526872,-0.21350682,9.713451,-0.0038772672,0.0036580116,0.0014037369,-25472.0,30204.5,-17789.5,
50.121,-1.2215626,-0.203929984,9.806826,-0.002811417,0.001526311,-0.0028596632,-25984.0,29948.5,-18301.5,
50.237,-1.238322,-0.237448816,9.749365,-0.0057424904,0.00179276984,0.0011372734,-25728.0,29180.5,-17021.5,
50.356,-1.1952264,-0.203929984,9.646414,-0.0010794252,0.0077881776,0.000337886632,-25216.0,29948.5,-15741.5,
50.487,-1.2191684,-0.15604596,9.706269,-0.002811417,0.001526311,-0.0037922818,-25472.0,29692.5,-18045.5,
50.604,-1.3149366,-0.31645748,9.79246,-0.0073412808,0.004857093,-0.0028596632,-25472.0,30204.5,-17533.5,
50.719,-1.1593134,-0.15844018,9.679933,-0.0025449544,0.005256787,0.0027360496,-25728.0,29692.5,-16765.5,
50.836,-1.2167742,-0.16322857,9.737393,-0.0040104984,-0.000738620736,0.00087081176,-25984.0,29180.5,-17021.5,
50.955,-1.2335336,-0.14168076,9.634443,-0.0026781856,0.0029918552,7.142406e-05,-25216.0,29180.5,-17021.5,
51.078,-1.1880438,-0.175199568,9.76373,-0.0064086468,0.0027253888,0.0014037369,-24960.0,29436.5,-16765.5,
51.195,-1.2407162,-0.21111262,9.715846,-0.00520958,-0.0004721582,-0.0028596632,-24960.0,29948.5,-16765.5,
51.310,-1.2790234,-0.206324184,9.828373,-0.004809886,0.0075217187,-0.00046150108,-25728.0,29436.5,-15997.5,
51.429,-1.1952264,-0.21829522,9.696692,-0.007474512,0.00725525236,-0.0008611949,-25472.0,29436.5,-17789.5,
51.546,-1.2167742,-0.203929984,9.780489,0.0013187528,0.0012598485,0.001004043,-25984.0,29948.5,-16253.5,
51.671,-1.1952264,-0.17759377,9.727817,-0.006142199,0.0031250828,0.00020465534,-25472.0,30204.5,-16765.5,
51.789,-1.1832554,-0.1871706,9.778095,0.00065259636,0.0031250828,-0.0015273513,-25216.0,29948.5,-17789.5,
51.906,-1.2239568,-0.22068942,9.794854,-0.0026781856,0.0053900144,-0.0020602756,-24960.0,29948.5,-17533.5,
52.023,-1.202409,-0.16562277,9.687116,-0.0026781856,-0.0003389269,-0.0016605817,-24704.0,30460.5,-18301.5,
52.139,-1.2646582,-0.196747384,9.758942,-0.0045434236,0.0036580116,-0.0019270442,-24960.0,30460.5,-17277.5,
52.264,-1.2287452,-0.15125756,9.708663,-0.0004132688,0.0019260049,-0.0015273513,-24960.0,31484.5,-16509.5,
52.382,-1.2119858,-0.1895648,9.536281,-0.0045434236,6.0766936e-05,0.0014037369,-25216.0,32252.5,-15229.5,
52.499,-1.2048032,-0.22308362,9.732605,-0.0032111108,0.006056171,-0.001793813,-24704.0,32252.5,-16253.5,
52.615,-1.238322,-0.21590102,9.737393,-0.00067971648,-0.0039361716,-0.0021935068,-25728.0,31996.5,-14717.5,
52.731,-1.1952264,-0.13689235,9.677539,-0.0013458729,6.0766936e-05,-0.002326738,-24960.0,32764.5,-15229.5,
52.855,-1.1856496,-0.11295034,9.782884,-0.006142199,-0.0016712397,0.0006043492,-24704.0,32764.5,-15997.5,
52.971,-1.2215626,-0.24463144,9.701481,-0.0060089676,0.0028586238,-6.180722e-05,-24192.0,32508.5,-15485.5,
53.088,-1.2335336,-0.11534454,9.715846,-0.002811417,0.0024589264,-0.0029928944,-23936.0,32764.5,-16765.5,
53.204,-1.1641018,-0.16322857,9.732605,-0.0014791042,0.0041909368,-0.0036590504,-24448.0,32252.5,-15741.5,
53.328,-1.2119858,-0.15604596,9.770912,-0.004676655,0.006189406,0.0014037369,-24192.0,32252.5,-15229.5,
53.444,-1.2550814,-0.1871706,9.727817,-0.008940056,0.0019260049,0.0011372734,-24448.0,32508.5,-16765.5,
53.561,-1.21438,-0.21590102,9.682327,-0.0073412808,0.0055232496,-0.0020602756,-24960.0,32508.5,-16765.5,
53.677,-1.3029656,-0.28533286,9.682327,0.000919044,0.0068555624,-0.0019270442,-24704.0,32508.5,-15485.5,
53.794,-1.2119858,-0.1871706,9.787672,-0.0044102072,0.003924474,-0.0013941191,-24448.0,32508.5,-17021.5,
53.916,-1.2167742,-0.17759377,9.667962,-0.0037440508,0.0009933859,7.142406e-05,-24448.0,32508.5,-16253.5,
54.034,-1.21438,-0.16083437,9.699086,-0.004809886,0.0020592324,-0.0029928944,-24704.0,32252.5,-16509.5,
54.149,-1.190438,-0.21350682,9.713451,-0.00094617908,0.003791239,-0.0019270442,-23936.0,32508.5,-16253.5,
54.265,-1.2119858,-0.12970975,9.691904,-0.0029446482,0.0036580116,0.000337886632,-24704.0,32764.5,-15485.5,
54.383,-1.1928322,-0.168016976,9.658385,-0.00720804936,0.0016595423,0.0006043492,-24448.0,32252.5,-15229.5,
54.509,-1.2191684,-0.1895648,9.687116,-0.007074803,-0.0006053895,-0.0028596632,-24960.0,32764.5,-14973.5,
54.624,-1.2335336,-0.179988,9.696692,-0.002411738,-0.0028703212,0.002336355,-24448.0,32764.5,-14717.5,
54.738,-1.2119858,-0.14407496,9.737393,-0.006142199,-0.0006053895,7.142406e-05,-24192.0,-32515.5,-15229.5,
54.854,-1.226351,-0.25420824,9.742182,-0.0044102072,0.0033915452,-0.001793813,-23936.0,-32515.5,-15741.5,
54.970,-1.2215626,-0.3427937,9.696692,-0.00081294776,0.00019399822,7.142406e-05,-24448.0,32764.5,-15485.5,
55.093,-1.262264,-0.23026622,9.751759,-0.0022784918,0.0023256988,0.00087081176,-24448.0,-32515.5,-14973.5,
55.210,-1.2455046,-0.3547647,9.694298,-0.00081294776,-0.00380293668,0.000337886632,-24704.0,-32259.5,-15229.5,
55.329,-1.0707281,-0.13689235,9.708663,-0.0029446482,0.011918347,0.0018034298,-24192.0,32764.5,-14461.5,
55.448,-1.2048032,-0.110556132,9.744576,-0.00414373,0.005256787,-0.00046150108,-24448.0,32764.5,-15229.5,
55.564,-1.2000148,-0.168016976,9.775701,-0.006541893,0.0027253888,-0.003925513,-25216.0,31996.5,-15229.5,
55.687,-1.238322,-0.25420824,9.730211,-0.0038772672,0.0024589264,-0.004191975,-24448.0,32252.5,-15229.5,
55.803,-1.1880438,-0.15604596,9.735,-0.0045434236,-0.0003389269,-0.0021935068,-24192.0,-32259.5,-15485.5,
55.919,-1.1832554,-0.06267209,9.785277,-0.0050763636,-0.00313678,-0.0001950385,-25216.0,-32515.5,-15741.5,
56.034,-1.262264,-0.09858513,9.751759,-0.0032111108,0.003791239,-0.0021935068,-23936.0,32764.5,-14205.5,
56.149,-1.439435,-0.6109443,9.790066,0.0067812352,-0.00273709,0.0044680556,-24960.0,32508.5,-15229.5,
56.269,-1.2838118,0.037884372,9.699086,-0.002811417,0.0045906304,0.0044680556,-24192.0,32764.5,-15741.5,
56.386,-1.2670524,-0.16562277,9.727817,-0.0026781856,0.0016595423,-0.0001950385,-24192.0,-32259.5,-15485.5,
56.504,-1.2287452,-0.27815026,9.684721,-1.3560057e-05,0.0009933859,-0.0009944253,-24704.0,-32003.5,-15741.5,
56.621,-1.2287452,-0.108161928,9.749365,-0.0044102072,0.005656477,-0.0003282698,-24704.0,32764.5,-16509.5,
56.744,-1.226351,-0.203929984,9.730211,0.0010522902,0.0019260049,0.001004043,-24192.0,-32515.5,-16509.5,
56.863,-1.202409,-0.168016976,9.694298,-0.0040104984,0.0045906304,-0.0016605817,-24448.0,32764.5,-16253.5,
56.981,-1.238322,-0.29251546,9.711058,-0.0012126416,-7.246435e-05,-0.002726432,-24448.0,-32515.5,-15229.5,
57.096,-1.343667,-0.002817057,9.708663,-0.004276961,0.0036580116,-0.0035258192,-24448.0,32764.5,-14973.5,
57.212,-1.2718408,-0.27096764,9.74697,-0.004276961,0.005256787,0.0015369672,-24192.0,32508.5,-14973.5,
57.333,-1.1617076,-0.06267209,9.701481,-0.0049431176,-0.0026038588,-0.0045916692,-24704.0,32252.5,-15485.5,
57.450,-1.2071974,-0.179988,9.770912,-0.00361080468,0.0021924674,-0.0011276575,-24192.0,-32259.5,-16509.5,
57.567,-1.2215626,-0.17759377,9.720634,-0.00028002262,0.0027253888,-0.0036590504,-24704.0,32252.5,-15485.5,
57.687,-1.2215626,-0.1895648,9.778095,-0.004676655,0.003924474,0.0018034298,-23936.0,32508.5,-15997.5,
57.802,-1.2455046,-0.208718384,9.655991,-0.0054760424,0.0009933859,-0.0025932006,-24960.0,32764.5,-15229.5,
57.926,-1.2239568,-0.175199568,9.708663,-0.0032111108,0.0008601546,-0.001793813,-24448.0,32252.5,-14973.5,
58.042,-1.2095916,-0.172805368,9.749365,-0.002411738,0.0009933859,0.0012705056,-24192.0,32508.5,-15741.5,
58.160,-1.2191684,-0.14407496,9.723028,-0.0050763636,0.003791239,-0.0021935068,-24448.0,31996.5,-15997.5,
58.276,-1.295783,-0.4481386,9.706269,-0.0030778944,0.0064558648,-0.0005947314,-25216.0,32508.5,-15229.5,
58.391,-1.190438,-0.053095296,9.739788,-0.0005464852,-0.0019377023,-0.0012608878,-24704.0,32252.5,-15485.5,
58.515,-1.1880438,-0.172805368,9.768518,-0.0029446482,-0.00273709,0.0014037369,-24192.0,31996.5,-16253.5,
58.633,-1.2119858,-0.21829522,9.723028,-0.00361080468,0.0032583176,7.142406e-05,-24192.0,32508.5,-15741.5,
58.751,-1.262264,-0.06506631,9.727817,-0.0010794252,-0.000205695632,-0.0005947314,-24192.0,32252.5,-15229.5,
58.867,-1.2646582,-0.22068942,9.735,0.000119671224,0.005256787,-0.0020602756,-24448.0,32508.5,-15485.5,
58.985,-1.1617076,-0.13928655,9.840344,-0.004676655,0.005256787,-0.0020602756,-24704.0,31484.5,-15997.5,
59.107,-1.178467,-0.14407496,9.701481,-0.0032111108,-0.0032700152,-0.005124594,-24960.0,30204.5,-16509.5,
59.222,-1.2167742,-0.15125756,9.689509,-0.00361080468,-0.0026038588,-0.0025932006,-24960.0,30204.5,-17533.5,
59.341,-1.2335336,-0.168016976,9.723028,-0.004276961,-0.0019377023,0.0015369672,-24192.0,29948.5,-18045.5,
59.460,-1.2335336,-0.1895648,9.715846,-0.005609274,0.0024589264,7.142406e-05,-24448.0,29948.5,-18045.5,
59.575,-1.2431104,-0.201535792,9.660779,-0.0040104984,0.0045906304,-0.0019270442,-24448.0,29948.5,-17277.5,
59.700,-1.2095916,-0.14886336,9.723028,-0.0025449544,-0.0016712397,0.0040683616,-25216.0,28668.5,-16509.5,
59.817,-1.2167742,-0.1895648,9.756547,0.0002528876,0.004857093,0.00020465534,-24960.0,28668.5,-17021.5,
59.933,-1.2574756,-0.17759377,9.749365,-0.0014791042,-0.000205695632,-0.0009944253,-24704.0,27900.5,-17277.5,
60.053,-1.2311394,-0.1895648,9.689509,-0.0025449544,0.0063226336,-0.0011276575,-24192.0,28412.5,-16509.5,
60.175,-1.202409,-0.24702564,9.713451,0.0003861338,0.0028586238,0.000337886632,-24448.0,29180.5,-16765.5,
60.293,-1.2311394,-0.17759377,9.725423,-0.004809886,6.0766936e-05,0.002336355,-24960.0,28924.5,-16765.5,
60.411,-1.2646582,-0.175199568,9.677539,-0.0064086468,0.008321103,-0.0025932006,-24960.0,29436.5,-17789.5,
60.528,-1.226351,-0.11534454,9.711058,-0.0054760424,0.00179276984,-0.0036590504,-24704.0,28668.5,-17021.5,
60.646,-1.178467,-0.175199568,9.744576,-0.001878798,-0.0043358652,-0.0013941191,-23936.0,29692.5,-15997.5,
60.769,-1.2215626,-0.170411168,9.749365,-0.0004132688,-0.00180447468,-0.0024599694,-23936.0,30204.5,-17021.5,
60.888,-1.2550814,-0.14407496,9.708663,-0.002411738,0.0053900144,-0.003259357,-23936.0,30460.5,-16765.5,
61.004,-1.250293,-0.13449815,9.732605,-0.002811417,-7.246435e-05,-0.002726432,-23424.0,29948.5,-15997.5,
61.119,-1.1952264,-0.1895648,9.660779,-0.0032111108,0.0028586238,0.002336355,-24192.0,29692.5,-17021.5,
61.235,-1.1569192,-0.12492134,9.670356,-0.004676655,0.0059229432,-0.0001950385,-24960.0,29436.5,-16765.5,
61.357,-1.2862062,-0.191959,9.91217,-0.0029446482,-0.006600797,0.0024695872,-24192.0,29692.5,-16765.5,
61.472,-1.2886004,-0.21111262,9.684721,-0.0029446482,-0.00313678,0.0030025114,-24192.0,29180.5,-16253.5,
61.588,-1.2239568,-0.1871706,9.739788,0.003317222,0.00019399822,-0.0025932006,-24192.0,29436.5,-15997.5,
61.704,-1.1928322,-0.14407496,9.749365,-0.0050763636,0.004723858,0.0011372734,-24192.0,29692.5,-17277.5,
61.826,-1.21438,-0.21111262,9.773307,-0.0029446482,0.0031250828,-0.0025932006,-23936.0,29692.5,-15997.5,
61.948,-1.1401598,-0.16322857,9.761335,-0.0030778944,0.0036580116,-0.0021935068,-24192.0,29436.5,-17277.5,
62.065,-1.2574756,-0.172805368,9.756547,-0.0013458729,0.0031250828,0.001004043,-24704.0,29692.5,-16509.5,
62.183,-1.1808612,-0.168016976,9.761335,-0.0010794252,-0.0012715459,-0.0024599694,-24192.0,29692.5,-16765.5,
62.301,-1.3269076,-0.16083437,9.775701,-0.0050763636,0.0040577016,-0.0008611949,-23936.0,29436.5,-16253.5,
62.418,-1.0611513,-0.093796712,9.849921,-0.0005464852,0.00179276984,0.00047111884,-24448.0,29692.5,-15997.5,
62.542,-1.190438,-0.16322857,9.725423,0.0031839908,0.0023256988,-0.001793813,-24192.0,28924.5,-17277.5,
62.658,-1.2119858,-0.14407496,9.699086,0.0013187528,-0.0024706236,-0.0025932006,-23424.0,29436.5,-16509.5,
62.776,-1.2478988,-0.15844018,9.660779,-0.002411738,-0.00380293668,-0.0015273513,-24192.0,29948.5,-17021.5,
62.894,-1.2048032,-0.10576773,9.687116,-0.0092065184,0.0016595423,0.0022031236,-23936.0,29948.5,-17533.5,
63.016,-1.2191684,-0.21350682,9.689509,-0.0030778944,0.0033915452,-0.0029928944,-23936.0,28924.5,-17277.5,
63.133,-1.2119858,-0.14168076,9.742182,-0.006541893,0.0029918552,0.000337886632,-24448.0,29436.5,-16509.5,
63.251,-1.4083104,-0.28772706,9.76373,-0.010938525,-0.0032700152,-0.003259357,-24192.0,28924.5,-16509.5,
63.367,-1.262264,-0.1871706,9.742182,-0.00694158636,-0.004202634,-6.180722e-05,-24192.0,28924.5,-16765.5,
63.482,-1.0755165,-0.12013294,9.691904,-0.0013458729,0.0019260049,-0.0037922818,-23936.0,29436.5,-17789.5,
63.608,-1.178467,-0.14407496,9.677539,-0.007074803,6.0766936e-05,-0.0024599694,-23936.0,29436.5,-17021.5,
63.724,-1.250293,-0.16083437,9.71824,-0.0010794252,0.0020592324,-0.0008611949,-24448.0,29180.5,-16509.5,
63.839,-1.2335336,-0.09619093,9.74697,-0.0045434236,0.0077881776,0.00286928,-23936.0,29948.5,-16765.5,
63.954,-1.3221192,-0.21829522,9.749365,-0.006541893,0.0033915452,-0.0012608878,-23680.0,29692.5,-16765.5,
64.071,-1.2287452,-0.1847764,9.71824,-0.0014791042,0.0027253888,-0.002726432,-23680.0,29948.5,-17277.5,
64.192,-1.2670524,-0.29251546,9.720634,-0.0038772672,0.009786647,0.0006043492,-23936.0,29692.5,-15997.5,
64.308,-1.2239568,-0.170411168,9.737393,-0.0082739,0.006189406,0.0014037369,-23168.0,30204.5,-16765.5,
64.424,-1.2167742,-0.09858513,9.742182,-0.0040104984,-0.0016712397,-0.0016605817,-23168.0,30204.5,-16509.5,
64.541,-1.2526872,-0.28293866,9.720634,-0.004276961,0.00072692332,-0.0008611949,-23936.0,29692.5,-16765.5,
64.658,-1.2598698,-0.23026622,9.715846,0.0002528876,0.0036580116,-0.0043252064,-23936.0,29436.5,-18045.5,
64.780,-1.2167742,-0.28772706,9.756547,-0.0021452606,0.0075217187,-0.0037922818,-23936.0,29436.5,-17533.5,
64.901,-1.2239568,-0.208718384,9.64402,-0.0004132688,0.0035247804,-0.001793813,-23680.0,29692.5,-16765.5,
65.018,-1.1521308,-0.13928655,9.744576,-0.00520958,-0.000871852064,0.00047111884,-23424.0,29692.5,-17277.5,
65.135,-1.2000148,-0.1943532,9.679933,-0.0014791042,6.0766936e-05,0.00020465534,-23168.0,29692.5,-16509.5,
65.252,-1.2071974,-0.175199568,9.71824,-0.006142199,0.0003272295,-0.000727963636,-24448.0,29436.5,-16765.5,
65.375,-1.226351,-0.14646916,9.725423,-0.004276961,0.0016595423,-0.0025932006,-23424.0,29948.5,-17277.5,
65.492,-1.2287452,-0.23026622,9.658385,0.0013187528,0.0064558648,-0.00339258784,-23424.0,29692.5,-17533.5,
65.610,-1.2000148,-0.14886336,9.708663,-0.008806825,0.010186341,-0.0003282698,-24192.0,28924.5,-17021.5,
65.726,-1.2287452,-0.25420824,9.754153,-0.004676655,-0.0039361716,-0.0037922818,-24448.0,28924.5,-15485.5,
65.844,-1.1976206,-0.170411168,9.71824,-0.0013458729,-0.000205695632,-0.0005947314,-24192.0,28412.5,-16509.5,
65.968,-1.1928322,-0.14646916,9.732605,-0.00347757336,0.003791239,-0.0013941191,-24448.0,28412.5,-16765.5,
66.086,-1.2407162,-0.170411168,9.744576,-0.0049431176,-0.000871852064,-0.0045916692,-24192.0,28156.5,-17021.5,
66.205,-1.1880438,-0.079431508,9.732605,0.001451984,0.0063226336,0.00073758052,-24448.0,28668.5,-16509.5,
66.322,-1.1880438,-0.235054608,9.703875,-0.0029446482,0.0045906304,-0.0049913632,-24192.0,28412.5,-15997.5,
66.447,-1.190438,-0.13210395,9.720634,0.0002528876,0.0019260049,-0.0036590504,-24192.0,27900.5,-16765.5,
66.564,-1.226351,-0.201535792,9.655991,-0.0022784918,-0.000205695632,-0.002326738,-24192.0,28412.5,-16765.5,
66.683,-1.4442234,-0.11534454,9.691904,-0.002411738,0.000460457068,-0.0020602756,-24448.0,27644.5,-16253.5,
66.801,-1.3053598,0.030701768,9.727817,-0.0013458729,0.0016595423,0.0022031236,-24704.0,27644.5,-16509.5,
66.918,-1.2981772,-0.179988,9.873863,0.0027842968,-0.004602328,0.0034022052,-24960.0,27388.5,-17021.5,
67.039,-1.2095916,-0.1823822,9.785277,-0.0062754304,0.005123552,-0.0040587444,-24960.0,28412.5,-17789.5,
67.155,-1.1832554,-0.1871706,9.799643,-0.002411738,0.00059369208,-6.180722e-05,-25216.0,28412.5,-17277.5,
67.270,-1.2048032,-0.201535792,9.787672,-0.002811417,0.00072692332,-0.0024599694,-24704.0,28924.5,-19325.5,
67.387,-1.226351,-0.15365176,9.751759,0.000119671224,-0.0014047772,-0.0013941191,-24960.0,29692.5,-19069.5,
67.505,-1.1976206,-0.22068942,9.711058,-0.003344342,-0.0019377023,0.0015369672,-25472.0,29692.5,-18045.5,
67.629,-1.2215626,-0.1847764,9.778095,-0.0037440508,-0.0011383183,-0.0005947314,-25216.0,30460.5,-16509.5,
67.745,-1.3149366,-0.29012126,9.679933,0.000119671224,0.0075217187,-0.0003282698,-25728.0,29692.5,-17533.5,
67.865,-1.1832554,-0.179988,9.723028,0.0017184466,0.0040577016,0.0018034298,-26240.0,30972.5,-16765.5,
67.981,-1.2239568,-0.179988,9.711058,-0.0040104984,0.0019260049,0.003268974,-26752.0,29948.5,-17021.5,
68.097,-1.2311394,-0.1871706,9.816402,0.00185167792,-0.0011383183,-0.0028596632,-25728.0,30716.5,-17277.5,
68.221,-1.2526872,-0.203929984,9.696692,-0.002411738,-0.00180447468,0.00087081176,-24704.0,31228.5,-17277.5,
68.340,-1.2407162,-0.30448648,9.689509,-0.009606212,0.008321103,-0.0043252064,-25472.0,31228.5,-18045.5,
68.455,-1.2119858,-0.1871706,9.708663,-0.0013458729,0.00725525236,-0.0024599694,-24448.0,31740.5,-16253.5,
68.573,-1.2000148,-0.14886336,9.732605,-0.0014791042,0.0029918552,-6.180722e-05,-24960.0,31484.5,-16765.5,
68.689,-1.2191684,-0.14407496,9.687116,-0.002411738,0.0008601546,-0.0013941191,-24704.0,30972.5,-17789.5,
68.811,-1.1617076,-0.22547782,9.579376,-0.0049431176,0.004857093,0.00087081176,-24960.0,30972.5,-16509.5,
68.928,-1.1856496,-0.1943532,9.703875,-0.0025449544,0.00072692332,-0.0037922818,-24960.0,30972.5,-17533.5,
69.046,-1.2191684,-0.22547782,9.799643,-0.0053428112,0.0024589264,-0.0003282698,-24448.0,31228.5,-17533.5,
69.163,-1.1736786,-0.168016976,9.806826,-0.004676655,0.0009933859,-0.0011276575,-24960.0,31228.5,-17277.5,
69.286,-1.2167742,-0.21590102,9.679933,-0.0068083555,0.004857093,-0.003259357,-24960.0,31228.5,-18301.5,
69.403,-1.2455046,-0.19914159,9.730211,-0.0025449544,-0.000871852064,0.00047111884,-24960.0,30972.5,-17021.5,
69.523,-1.178467,-0.13449815,9.751759,-0.0014791042,0.0041909368,-0.002726432,-24704.0,30716.5,-16765.5,
69.639,-1.2431104,-0.201535792,9.703875,-0.004276961,0.0021924674,0.0016701994,-24704.0,31228.5,-16509.5,
69.757,-1.154525,-0.13928655,9.770912,-0.0032111108,-0.004469093,0.0034022052,-25216.0,31228.5,-17277.5,
69.879,-1.1377656,-0.16083437,9.713451,-0.0054760424,0.005256787,7.142406e-05,-24960.0,31484.5,-16253.5,
69.995,-1.1712844,-0.16322857,9.768518,-0.003344342,0.008187875,-0.0008611949,-24960.0,30972.5,-16253.5,
70.111,-1.2862062,-0.30688068,9.694298,0.0019849092,0.0032583176,-0.0012608878,-25728.0,29692.5,-17021.5,
70.228,-1.226351,-0.13689235,9.703875,-0.0060089676,-0.00273709,0.000337886632,-24448.0,31228.5,-16509.5,
70.344,-1.2550814,-0.13210395,9.751759,-0.002811417,-0.0030035526,-0.0015273513,-24448.0,31996.5,-16253.5,
70.468,-1.2455046,-0.22308362,9.744576,-0.001878798,0.0013930798,0.0012705056,-24192.0,31228.5,-16765.5,
70.585,-1.1976206,-0.208718384,9.761335,-0.0049431176,0.0036580116,0.00193666116,-24448.0,31484.5,-16253.5,
70.704,-1.2239568,-0.16083437,9.699086,-0.0017455816,0.0009933859,-0.0019270442,-24704.0,31484.5,-17021.5,
70.821,-1.2071974,-0.12731555,9.725423,-0.0060089676,-0.0015380084,-0.0019270442,-24960.0,31228.5,-17277.5,
70.939,-1.262264,-0.21590102,9.806826,-0.001878798,0.0027253888,-0.00046150108,-24448.0,31740.5,-17277.5,
71.060,-1.2407162,-0.179988,9.818796,-0.00081294776,-0.00180447468,0.0018034298,-24960.0,31484.5,-16765.5,
71.177,-1.238322,-0.14886336,9.71824,-0.0032111108,0.004723858,0.0016701994,-24704.0,30972.5,-16765.5,
71.292,-1.2167742,-0.179988,9.727817,-0.00028002262,0.0053900144,-0.00046150108,-24960.0,31228.5,-17277.5,
71.408,-1.2119858,-0.09619093,9.761335,-0.0010794252,0.0008601546,-0.0001950385,-24704.0,31484.5,-16253.5,
71.523,-1.2407162,-0.21350682,9.76373,-0.0010794252,0.00179276984,-6.180722e-05,-24960.0,31996.5,-15741.5,
71.647,-1.1401598,-0.08661412,9.804431,0.0031839908,0.0012598485,0.0011372734,-24448.0,31484.5,-16253.5,
71.764,-1.2694466,-0.14407496,9.727817,-0.0017455816,0.0012598485,-0.0019270442,-23936.0,31740.5,-15229.5,
71.882,-1.1832554,-0.16562277,9.768518,-0.0073412808,-0.0012715459,-0.002326738,-24448.0,30972.5,-17021.5,
71.999,-1.1210062,-0.14646916,9.689509,-0.0032111108,-0.0006053895,-0.00046150108,-24960.0,30972.5,-16509.5,
72.122,-1.0922758,-0.206324184,9.706269,-0.004676655,-0.0015380084,0.00713268,-24960.0,30716.5,-16765.5,
72.238,-1.2311394,-0.23026622,9.773307,-0.0045434236,0.008454334,-0.0005947314,-24448.0,30460.5,-17533.5,
72.354,-1.1832554,-0.13928655,9.715846,-0.0049431176,0.004857093,-0.000727963636,-24704.0,30972.5,-17789.5,
72.471,-1.1449482,-0.21590102,9.715846,0.0013187528,0.0025921612,-0.00046150108,-24960.0,30972.5,-18045.5,
72.588,-1.2598698,-0.208718384,9.667962,-0.0012126416,0.0076549464,-0.0028596632,-24704.0,31484.5,-17021.5,
72.727,-1.2526872,-0.1871706,9.775701,-0.0044102072,-0.0019377023,-0.005657519,-25472.0,31228.5,-16765.5,
72.845,-1.1401598,0.04506698,9.744576,-0.0014791042,0.004857093,-0.0009944253,-24960.0,30716.5,-16765.5,
72.960,-1.2335336,-0.21350682,9.818796,-0.00694158636,0.0009933859,-0.0003282698,-24192.0,31228.5,-16509.5,
73.082,-1.178467,-0.208718384,9.701481,-0.00067971648,0.00019399822,0.0040683616,-24704.0,30972.5,-15997.5,
73.200,-1.2287452,-0.25181404,9.751759,-0.0029446482,0.0021924674,0.0014037369,-25472.0,31228.5,-16253.5,
73.324,-1.2215626,-0.22547782,9.622472,-0.0030778944,0.0024589264,-0.0024599694,-24960.0,31228.5,-16765.5,
73.442,-1.2431104,-0.08900832,9.778095,-0.00347757336,-0.0026038588,-6.180722e-05,-24448.0,31996.5,-17533.5,
73.559,-1.2119858,-0.27575606,9.670356,-0.0029446482,0.0028586238,-0.0029928944,-24448.0,31484.5,-16509.5,
73.677,-1.2000148,-0.16562277,9.720634,-0.0037440508,6.0766936e-05,0.0035354364,-25216.0,31740.5,-16253.5,
73.794,-1.2574756,-0.175199568,9.744576,-0.00520958,0.0040577016,-0.0016605817,-25472.0,30972.5,-17789.5,
73.917,-1.2311394,-0.13928655,9.737393,-0.0021452606,0.00059369208,0.0016701994,-23680.0,31740.5,-16253.5,
74.035,-1.202409,-0.201535792,9.689509,-0.0053428112,0.004723858,-0.0016605817,-24960.0,31484.5,-15229.5,
74.152,-1.250293,-0.16562277,9.675144,-0.0057424904,-0.0019377023,-0.0013941191,-24704.0,31484.5,-15997.5,
74.271,-1.2478988,-0.15125756,9.79246,-0.004676655,-0.0016712397,-0.002326738,-25216.0,31740.5,-17021.5,
74.386,-1.2239568,-0.17759377,9.723028,-0.0040104984,-0.00180447468,0.0024695872,-24704.0,30972.5,-16509.5,
74.512,-1.2071974,-0.14646916,9.689509,-0.0038772672,0.0035247804,-0.0020602756,-24448.0,31228.5,-16509.5,
74.630,-1.226351,-0.12492134,9.703875,-0.004276961,0.000460457068,-0.0011276575,-24448.0,31228.5,-14717.5,
74.747,-1.2431104,-0.208718384,9.74697,-0.0062754304,0.0008601546,-0.0020602756,-24704.0,31228.5,-16765.5,
74.864,-1.2048032,-0.239843016,9.727817,-0.0057424904,0.0029918552,-0.0016605817,-24960.0,30716.5,-15741.5,
74.989,-1.1641018,-0.13689235,9.823585,-0.0037440508,0.0028586238,-0.0043252064,-24704.0,30972.5,-15485.5,
75.107,-1.2790234,-0.13449815,9.732605,-0.00347757336,0.0023256988,0.000337886632,-24192.0,30972.5,-16253.5,
75.227,-1.2455046,-0.14407496,9.732605,-0.0010794252,0.007921409,-0.0009944253,-24960.0,30972.5,-15229.5,
75.343,-1.2431104,-0.1943532,9.818796,-0.0013458729,-0.000738620736,-0.0005947314,-24448.0,31228.5,-15997.5,
75.461,-1.238322,-0.23026622,9.825979,-0.0037440508,-0.006600797,-0.0009944253,-24704.0,31228.5,-15741.5,
75.582,-1.2287452,-0.13449815,9.679933,-0.0005464852,0.0013930798,-0.0015273513,-24960.0,31484.5,-14973.5,
75.700,-1.1880438,-0.14407496,9.770912,-0.0013458729,0.0021924674,-0.0003282698,-24704.0,30716.5,-15997.5,
75.817,-1.2239568,-0.13928655,9.684721,-0.003344342,0.0011266135,0.0016701994,-24192.0,31740.5,-15997.5,
75.934,-1.2598698,-0.15125756,9.818796,-0.0012126416,-0.004202634,-0.004191975,-24192.0,30460.5,-15485.5,
76.050,-1.1688902,-0.1895648,9.780489,0.0003861338,0.0020592324,-0.0035258192,-24960.0,30972.5,-15997.5,
76.172,-1.238322,-0.19914159,9.64402,-0.0025449544,0.0032583176,0.0006043492,-24960.0,30972.5,-16253.5,
76.289,-1.3963394,-0.15604596,9.737393,-0.0062754304,-0.00313678,-0.0013941191,-24960.0,31228.5,-15229.5,
76.406,-1.2814176,-0.0219706668,9.847527,-0.00067971648,-0.00380293668,-0.004458438,-24960.0,32252.5,-14717.5,
76.524,-1.1928322,-0.11773874,9.725423,-0.006675124,0.0055232496,-0.0012608878,-24704.0,30972.5,-15741.5,
76.641,-1.2239568,-0.16562277,9.751759,-0.00414373,0.0012598485,0.0006043492,-24704.0,29948.5,-15997.5,
76.763,-1.3221192,-0.203929984,9.62726,-0.007607743,0.0063226336,-0.0021935068,-24960.0,30204.5,-16509.5,
76.880,-1.2071974,-0.108161928,9.684721,-0.0057424904,0.0053900144,-0.0024599694,-24960.0,30972.5,-16253.5,
76.999,-1.142554,-0.15604596,9.600924,-0.00720804936,0.008454334,0.00087081176,-25472.0,31228.5,-17021.5,
77.115,-1.2071974,-0.17759377,9.696692,0.001451984,0.0049903208,-6.180722e-05,-25216.0,30972.5,-17021.5,
77.232,-1.1856496,-0.168016976,9.744576,-0.0013458729,0.0016595423,0.0011372734,-25216.0,31740.5,-16253.5,
77.357,-1.2071974,-0.15844018,9.806826,-0.0038772672,0.0008601546,0.0020698932,-24960.0,31996.5,-16509.5,
77.474,-1.2095916,-0.15604596,9.742182,-0.0050763636,0.004723858,-0.004458438,-25216.0,31484.5,-17277.5,
77.589,-1.250293,-0.1895648,9.713451,-0.0038772672,0.00059369208,-0.0025932006,-24704.0,31996.5,-16509.5,
77.705,-1.2431104,-0.208718384,9.744576,-0.0012126416,0.0035247804,-0.0013941191,-25216.0,31996.5,-17277.5,
77.830,-1.2550814,-0.19914159,9.711058,-0.00347757336,0.0024589264,-0.0008611949,-25728.0,31740.5,-16253.5,
77.949,-1.2550814,-0.14886336,9.687116,-0.007074803,0.00019399822,-0.0029928944,-24960.0,31484.5,-15741.5,
78.066,-1.1042468,-0.12492134,9.586558,-0.002411738,0.015915284,-0.0003282698,-25472.0,31484.5,-16765.5,
78.182,-1.2838118,-0.14886336,9.677539,-0.0040104984,0.0029918552,-0.0013941191,-25216.0,30716.5,-17021.5,
78.299,-1.2000148,-0.196747384,9.701481,-0.0004132688,0.0045906304,0.0011372734,-25728.0,32252.5,-16509.5,
78.423,-1.1856496,-0.13928655,9.667962,-0.00414373,0.0016595423,0.0040683616,-25216.0,32508.5,-16765.5,
78.539,-1.1880438,-0.14646916,9.744576,-0.0005464852,0.0011266135,-0.0024599694,-25216.0,31740.5,-17021.5,
78.656,-1.2167742,-0.19914159,9.706269,0.000919044,0.003924474,-0.00339258784,-25216.0,31228.5,-16509.5,
78.774,-1.1832554,-0.22308362,9.816402,-0.0022784918,0.0028586238,-0.0019270442,-24704.0,31228.5,-17277.5,
78.892,-1.250293,-0.23026622,9.696692,-0.004276961,0.00698879,0.0020698932,-25216.0,31228.5,-15229.5,
79.013,-1.1952264,-0.14886336,9.715846,-0.00414373,0.0055232496,-0.0020602756,-25216.0,31740.5,-15741.5,
79.129,-1.2455046,-0.15365176,9.699086,-0.0020120292,-0.0022041648,-0.0020602756,-24960.0,31996.5,-15485.5,
79.246,-1.1928322,-0.175199568,9.725423,-0.004276961,-0.0022041648,-0.0009944253,-25472.0,31740.5,-16253.5,
79.364,-1.190438,-0.170411168,9.785277,0.000919044,0.0053900144,-0.0043252064,-25472.0,32252.5,-15997.5,
79.480,-1.1952264,-0.16322857,9.756547,-0.0054760424,-0.000205695632,0.00073758052,-24960.0,32508.5,-16509.5,
79.605,-1.202409,-0.16562277,9.730211,-0.0016123354,0.0043241644,0.000337886632,-25216.0,31996.5,-16253.5,
79.723,-1.166496,-0.12252714,9.720634,-0.002411738,0.004723858,-6.180722e-05,-25216.0,31740.5,-16509.5,
79.838,-1.1712844,-0.1847764,9.663174,-0.0025449544,0.0049903208,0.00020465534,-24960.0,30972.5,-16253.5,
79.955,-1.226351,-0.1871706,9.770912,-0.00361080468,0.00019399822,-6.180722e-05,-24704.0,31228.5,-16253.5,
80.071,-1.2167742,-0.32842848,9.682327,-0.0026781856,0.0040577016,-0.0008611949,-23936.0,30972.5,-16509.5,
80.194,-1.190438,-0.22547782,9.756547,-0.002411738,0.0028586238,0.0022031236,-24704.0,30716.5,-15997.5,
80.310,-1.2215626,-0.24223724,9.658385,-0.00014679134,0.004723858,-0.002326738,-24704.0,31484.5,-16509.5,
80.426,-1.190438,-0.191959,9.677539,-0.004809886,0.003791239,-0.0003282698,-24448.0,31228.5,-15997.5,
80.539,-1.2598698,-0.10576773,9.701481,-0.002411738,0.004723858,-0.0048581316,-24192.0,31228.5,-16253.5,
80.655,-1.2598698,-0.175199568,9.778095,-0.0020120292,0.005123552,-0.0003282698,-24192.0,30972.5,-16765.5,
80.778,-1.2598698,-0.21111262,9.778095,-0.008540362,0.0024589264,0.00047111884,-24704.0,30972.5,-17021.5,
80.895,-1.21438,-0.1943532,9.713451,-0.0045434236,0.0023256988,7.142406e-05,-24960.0,30716.5,-15997.5,
81.010,-1.226351,-0.16322857,9.79246,-0.004276961,0.0045906304,-0.005923982,-24448.0,30716.5,-16765.5,
81.125,-1.238322,-0.21350682,9.715846,-0.0021452606,0.0013930798,-0.0005947314,-24704.0,31228.5,-15741.5,
81.247,-1.2814176,-0.15604596,9.797249,-0.0021452606,0.003924474,7.142406e-05,-24704.0,31228.5,-16509.5,
81.363,-1.2191684,-0.191959,9.76373,-0.00361080468,0.003924474,7.142406e-05,-24448.0,31228.5,-17277.5,
81.478,-1.2335336,-0.12252714,9.735,-1.3560057e-05,0.0045906304,-0.0001950385,-25216.0,31484.5,-16765.5,
81.594,-1.2071974,-0.26378504,9.703875,0.0002528876,0.00019399822,-0.0060572124,-25216.0,31228.5,-15997.5,
81.712,-1.202409,-0.175199568,9.74697,-0.0044102072,-0.0019377023,-0.0024599694,-25216.0,30972.5,-15741.5,
81.836,-1.2407162,-0.15604596,9.732605,-0.00414373,0.0059229432,0.00020465534,-24960.0,31228.5,-15997.5,
81.953,-1.1688902,-0.208718384,9.675144,-0.007074803,0.0043241644,-0.0003282698,-24704.0,31740.5,-16765.5,
82.070,-1.2167742,-0.12731555,9.804431,0.0005193651,-0.0006053895,-0.0031261258,-24704.0,31484.5,-17533.5,
82.187,-1.2287452,-0.09858513,9.703875,-0.00347757336,0.00059369208,-0.0016605817,-24704.0,31740.5,-16253.5,
82.305,-1.226351,-0.170411168,9.754153,-0.006541893,0.0029918552,-0.004458438,-24704.0,31484.5,-16253.5,
82.428,-1.2574756,-0.235054608,9.725423,0.000919044,0.0031250828,-0.000727963636,-24960.0,31484.5,-17021.5,
82.546,-1.2048032,-0.19914159,9.665567,-0.0026781856,0.00179276984,0.0018034298,-25472.0,31996.5,-16765.5,
82.666,-1.2191684,-0.19914159,9.79246,-0.0022784918,0.00179276984,-0.002726432,-25472.0,31740.5,-16765.5,
82.784,-1.1688902,-0.206324184,9.636837,-0.0038772672,0.00912049,-0.0029928944,-24960.0,31484.5,-15229.5,
82.902,-1.2215626,-0.32842848,9.713451,-0.0020120292,0.0040577016,-0.0003282698,-24704.0,30972.5,-16509.5,
83.024,-1.2455046,-0.21111262,9.730211,-0.0016123354,0.0029918552,-0.0005947314,-23424.0,31228.5,-18557.5,
83.141,-1.2239568,-0.23026622,9.754153,-0.0032111108,0.0041909368,-0.0003282698,-23424.0,30972.5,-18045.5,
83.257,-1.2359278,-0.168016976,9.739788,-0.0064086468,0.0020592324,-0.0028596632,-22912.0,31484.5,-18813.5,
83.374,-1.1736786,-0.170411168,9.665567,-0.0037440508,0.0003272295,7.142406e-05,-22912.0,30972.5,-17789.5,
83.491,-1.1712844,-0.21350682,9.730211,-0.0040104984,0.005256787,-0.0005947314,-22144.0,31484.5,-17533.5,
83.613,-1.190438,-0.172805368,9.818796,-0.0021452606,0.0035247804,-0.0005947314,-21632.0,31484.5,-17021.5,
83.731,-1.190438,-0.196747384,9.699086,-0.00347757336,0.0076549464,-0.001793813,-22400.0,31484.5,-16509.5,
83.849,-1.2215626,-0.170411168,9.677539,-0.00081294776,-0.00180447468,-0.0008611949,-21888.0,30972.5,-17021.5,
83.968,-1.2311394,-0.208718384,9.732605,-0.002811417,0.0025921612,-0.0001950385,-21888.0,31228.5,-15485.5,
84.091,-1.2407162,-0.19914159,9.696692,-0.011204988,0.0027253888,-0.00046150108,-22144.0,30972.5,-16509.5,
84.210,-1.2048032,-0.21829522,9.773307,-0.0026781856,0.0003272295,-0.0011276575,-21888.0,31484.5,-15997.5,
84.327,-1.2048032,-0.15125756,9.655991,-0.0060089676,0.004723858,0.0035354364,-21632.0,31484.5,-16253.5,
84.450,-1.1976206,-0.23266042,9.699086,-0.0044102072,0.0045906304,-0.0016605817,-21888.0,31228.5,-16253.5,
84.567,-1.202409,-0.16562277,9.687116,-0.0038772672,0.0008601546,-0.003259357,-21632.0,31228.5,-16509.5,
84.688,-1.2359278,-0.201535792,9.699086,-0.00694158636,0.011651885,0.0018034298,-21376.0,30972.5,-16509.5,
84.807,-1.262264,-0.15365176,9.706269,-0.00361080468,-0.0016712397,-0.0063236756,-21376.0,31740.5,-17277.5,
84.925,-1.1760728,-0.16322857,9.646414,-0.0044102072,0.008720797,-0.0020602756,-21888.0,30972.5,-16253.5,
85.042,-1.0803049,-0.17759377,9.696692,-0.002411738,0.009520184,-0.0016605817,-21888.0,31228.5,-16765.5,
85.160,-1.262264,-0.25420824,9.751759,-0.007474512,-0.0014047772,-0.0025932006,-21632.0,31740.5,-15485.5,
85.281,-1.1928322,-0.16562277,9.749365,0.0003861338,0.0067223272,-0.0016605817,-21376.0,31484.5,-16509.5,
85.399,-1.2287452,-0.10097933,9.739788,-0.0012126416,-0.000738620736,-0.0001950385,-21632.0,31228.5,-17277.5,
85.516,-1.2215626,-0.14886336,9.593741,-0.0020120292,0.0011266135,0.00020465534,-21888.0,31484.5,-15741.5,
85.635,-1.238322,-0.21111262,9.706269,0.0011855215,-0.004202634,-0.0005947314,-21632.0,31740.5,-15485.5,
85.750,-1.2239568,-0.16562277,9.701481,-0.004809886,0.0009933859,0.001004043,-21888.0,31740.5,-15741.5,
85.871,-1.2239568,-0.22308362,9.689509,-0.006675124,0.000460457068,7.142406e-05,-21888.0,31484.5,-15485.5,
85.988,-1.178467,-0.175199568,9.67275,0.001451984,-0.0022041648,0.0026028176,-21888.0,32252.5,-15229.5,
86.104,-1.2886004,-0.15844018,9.646414,-0.0040104984,-0.0020709336,0.00020465534,-22400.0,31484.5,-15741.5,
86.221,-1.2718408,-0.019576468,9.756547,-0.0064086468,-0.0024706236,-0.0025932006,-21888.0,31484.5,-16253.5,
86.339,-1.238322,-0.110556132,9.739788,0.0015852153,0.0043241644,-0.001793813,-21888.0,31484.5,-14973.5,
86.461,-1.2191684,-0.21111262,9.655991,-0.0013458729,0.0075217187,0.0006043492,-21632.0,32252.5,-15741.5,
86.580,-1.1569192,-0.16562277,9.708663,-0.0054760424,0.0036580116,0.0018034298,-22400.0,31996.5,-15741.5,
86.698,-1.1688902,-0.175199568,9.71824,-0.00774095936,0.0013930798,-0.0016605817,-21632.0,31740.5,-15741.5,
86.817,-1.2000148,-0.110556132,9.749365,-0.003344342,0.0020592324,-0.0025932006,-21888.0,30972.5,-15997.5,
86.935,-1.238322,-0.074643108,9.667962,-0.0032111108,0.006189406,-0.001793813,-22144.0,31484.5,-17021.5,
87.055,-1.1928322,0.0019713492,9.71824,-0.0025449544,-0.0019377023,-0.0019270442,-21376.0,31228.5,-15485.5,
87.173,-1.2598698,-0.19914159,9.696692,-0.0040104984,0.004857093,-0.0015273513,-21888.0,31484.5,-16253.5,
87.292,-1.2239568,0.025913366,9.713451,0.0002528876,0.0064558648,0.00087081176,-22144.0,31740.5,-15741.5,
87.409,-1.1952264,-0.077037304,9.766124,-0.005609274,0.000460457068,-0.005524288,-21632.0,31996.5,-14973.5,
87.532,-1.2718408,-0.27815026,9.739788,-0.004276961,6.0766936e-05,-0.000727963636,-21376.0,31484.5,-15229.5,
87.650,-1.2526872,-0.28054446,9.76373,-0.00520958,0.004857093,-0.0016605817,-21888.0,31228.5,-15485.5,
87.765,-1.0396032,-0.0076054632,9.768518,-0.00094617908,0.000460457068,-0.0012608878,-21120.0,32252.5,-15997.5,
87.883,-1.2239568,-0.172805368,9.701481,-0.006142199,0.0033915452,7.142406e-05,-22144.0,31740.5,-15485.5,
87.999,-1.2287452,-0.14886336,9.76373,-0.0029446482,0.0021924674,0.0016701994,-21632.0,31484.5,-15997.5,
88.122,-1.1856496,-0.12252714,9.732605,-0.0020120292,-0.0006053895,0.0024695872,-21376.0,31228.5,-15997.5,
88.240,-1.2191684,-0.16322857,9.79246,-0.0025449544,0.0025921612,-0.002726432,-21888.0,29948.5,-15485.5,
88.356,-1.2766292,-0.168016976,9.665567,-0.0062754304,0.0053900144,7.142406e-05,-21632.0,30460.5,-15485.5,
88.474,-1.2574756,-0.14646916,9.660779,-0.0020120292,0.003924474,-0.0012608878,-21888.0,30716.5,-15229.5,
88.590,-1.2311394,-0.179988,9.766124,-0.003344342,0.0027253888,-0.0016605817,-21120.0,30716.5,-15229.5,
88.711,-1.226351,-0.11295034,9.701481,0.0005193651,0.008587565,0.0011372734,-21888.0,30460.5,-16253.5,
88.827,-1.2670524,-0.203929984,9.708663,-0.00414373,0.005656477,0.0027360496,-21888.0,30972.5,-17277.5,
88.943,-1.1928322,-0.13210395,9.74697,0.0017184466,0.0028586238,-0.002726432,-22144.0,30972.5,-16509.5,
89.060,-1.1210062,-0.1943532,9.739788,-0.0045434236,0.0031250828,0.0039351304,-21632.0,30972.5,-16253.5,
89.177,-1.2359278,-0.16562277,9.76373,-0.00520958,-0.000871852064,-0.0025932006,-21888.0,30460.5,-15997.5,
89.300,-1.154525,-0.13689235,9.735,-0.0020120292,0.0003272295,0.00047111884,-22144.0,31228.5,-16253.5,
89.416,-1.2431104,-0.25660244,9.758942,-0.0057424904,0.0044573956,-0.0005947314,-21376.0,31228.5,-16253.5,
89.533,-1.250293,-0.1823822,9.71824,0.00065259636,6.0766936e-05,-0.0016605817,-21888.0,30716.5,-16509.5,
89.649,-1.1712844,-0.24223724,9.687116,-0.0022784918,-0.0026038588,-0.0009944253,-22144.0,31228.5,-16509.5,
89.765,-1.3029656,-0.206324184,9.711058,-0.004676655,-0.0024706236,0.001004043,-21376.0,30972.5,-14717.5,
89.888,-1.1808612,-0.175199568,9.687116,-0.0037440508,0.006056171,0.000337886632,-21888.0,30972.5,-15741.5,
90.006,-1.2670524,-0.208718384,9.830768,0.0022513718,0.0027253888,0.002336355,-21632.0,31484.5,-14717.5,
90.124,-1.2095916,-0.175199568,9.782884,-0.0022784918,0.0009933859,-0.0015273513,-21632.0,31228.5,-15485.5,
90.242,-1.190438,-0.28772706,9.720634,-1.3560057e-05,0.0055232496,-0.0029928944,-21888.0,30972.5,-15741.5,
90.365,-1.1832554,-0.170411168,9.761335,-0.0012126416,0.0036580116,0.0012705056,-21376.0,31228.5,-16509.5,
90.483,-1.2167742,-0.15844018,9.732605,-0.0044102072,0.003791239,0.001004043,-21120.0,30972.5,-16765.5,
90.599,-1.2359278,-0.172805368,9.696692,-0.0012126416,-0.0030035526,-0.0021935068,-21888.0,31228.5,-15997.5,
90.717,-1.1760728,-0.170411168,9.775701,-0.0037440508,0.0024589264,-0.002326738,-21632.0,30972.5,-16765.5,
90.834,-1.1808612,-0.172805368,9.689509,-0.0029446482,-0.0039361716,-0.0015273513,-22144.0,31484.5,-16253.5,
90.959,-1.1234004,-0.14407496,9.708663,-0.0037440508,-0.0003389269,-0.003925513,-21632.0,30716.5,-16765.5,
91.075,-1.2167742,-0.13928655,9.703875,-0.002811417,-0.0004721582,0.0020698932,-21888.0,30972.5,-16509.5,
91.191,-1.2909946,-0.13449815,9.665567,-0.00014679134,0.007921409,-0.0021935068,-21888.0,30716.5,-16253.5,
91.309,-1.21438,-0.13928655,9.701481,-0.00347757336,0.00019399822,-0.0048581316,-22400.0,31228.5,-16253.5,
91.426,-1.2095916,-0.16562277,9.701481,-0.0045434236,0.0040577016,-0.003925513,-21888.0,30972.5,-16765.5,
91.549,-1.2407162,-0.14168076,9.758942,-0.007474512,0.0011266135,0.000337886632,-21888.0,31228.5,-15741.5,
91.667,-1.2431104,-0.22787202,9.782884,-0.00414373,0.0009933859,-0.005524288,-21376.0,30972.5,-17533.5,
91.782,-1.21438,-0.175199568,9.775701,-0.006142199,0.0040577016,-0.002726432,-21632.0,31484.5,-16765.5,
91.897,-1.226351,-0.15604596,9.770912,-0.0057424904,0.0041909368,-0.00046150108,-21888.0,30716.5,-17277.5,
92.014,-1.2071974,-0.21590102,9.667962,-0.00361080468,-0.0012715459,-0.0001950385,-21632.0,31228.5,-16765.5,
92.138,-1.226351,-0.23266042,9.713451,-0.00347757336,0.0021924674,-0.0045916692,-22144.0,31228.5,-15997.5,
92.256,-1.1880438,-0.22787202,9.754153,-0.0045434236,0.005656477,-0.0009944253,-21888.0,30972.5,-16765.5,
92.373,-1.2215626,-0.21111262,9.742182,-0.0020120292,0.00072692332,-0.00339258784,-22144.0,31740.5,-15741.5,
92.491,-1.1832554,-0.21350682,9.83795,-0.00028002262,0.00059369208,0.0016701994,-22400.0,31484.5,-16253.5,
92.609,-1.1736786,-0.1823822,9.742182,-0.0045434236,-0.0004721582,0.0044680556,-22144.0,31484.5,-16765.5,
92.731,-1.2095916,-0.23266042,9.711058,-0.0040104984,0.005256787,0.00047111884,-21632.0,31484.5,-16509.5,
92.848,-1.2335336,-0.31406328,9.723028,-0.00028002262,0.0029918552,0.001004043,-21888.0,30972.5,-16509.5,
92.965,-1.226351,-0.09858513,9.71824,-0.0045434236,0.0041909368,-0.0015273513,-21888.0,31228.5,-16509.5,
93.080,-1.238322,-0.15604596,9.794854,-0.0004132688,0.0016595423,-0.0013941191,-21888.0,31740.5,-16253.5,
93.196,-1.2478988,-0.175199568,9.758942,-0.00028002262,0.0011266135,-0.0015273513,-22400.0,31228.5,-15997.5,
93.321,-1.1928322,-0.206324184,9.682327,-0.0044102072,0.0009933859,-0.0024599694,-22144.0,31484.5,-16253.5,
93.439,-1.2335336,-0.191959,9.706269,-0.0037440508,0.00019399822,0.00020465534,-21888.0,31996.5,-16765.5,
93.556,-1.2455046,-0.170411168,9.723028,0.0013187528,0.0013930798,-0.0013941191,-22144.0,31484.5,-17277.5,
93.674,-1.2167742,-0.22787202,9.76373,-0.0026781856,0.0024589264,-0.0021935068,-22400.0,31740.5,-16509.5,
93.796,-1.1952264,-0.170411168,9.744576,-0.0062754304,0.0036580116,-0.0011276575,-21888.0,31996.5,-16765.5,
93.915,-1.2909946,-0.24463144,9.67275,-0.00347757336,0.008987259,-0.0036590504,-21888.0,31740.5,-16253.5,
94.032,-1.2694466,-0.1871706,9.751759,-0.00361080468,0.00059369208,0.00073758052,-22400.0,31740.5,-15997.5,
94.150,-1.1880438,-0.13210395,9.64402,-0.002411738,0.0020592324,0.0020698932,-22144.0,32252.5,-17021.5,
94.266,-1.226351,-0.172805368,9.756547,-0.003344342,0.0020592324,7.142406e-05,-21632.0,31996.5,-18045.5,
94.388,-1.2862062,-0.24941984,9.703875,-0.002411738,0.0063226336,-0.0037922818,-22144.0,31996.5,-16509.5,
94.506,-1.21438,-0.1895648,9.749365,-0.0014791042,0.00072692332,-0.003925513,-22144.0,31740.5,-17277.5,
94.621,-1.1880438,-0.15125756,9.802037,-0.0020120292,0.0013930798,-0.0021935068,-22144.0,31996.5,-17533.5,
94.738,-1.2119858,-0.13928655,9.713451,-0.0057424904,0.0021924674,-0.001793813,-22400.0,31996.5,-16509.5,
94.855,-1.1162178,-0.024364874,9.684721,-0.00028002262,6.0766936e-05,0.0030025114,-21888.0,31996.5,-16509.5,
94.980,-1.2478988,-0.22308362,9.821191,-0.00028002262,0.0045906304,0.0022031236,-22144.0,31996.5,-15485.5,
95.098,-1.2981772,-0.22068942,9.770912,-0.0021452606,-0.0026038588,-0.0035258192,-21888.0,31996.5,-16765.5,
95.215,-1.2335336,-0.25420824,9.725423,-0.0032111108,0.0011266135,-0.0036590504,-21376.0,31484.5,-16509.5,
95.333,-1.2239568,-0.15604596,9.794854,-0.007474512,-0.00180447468,-0.004191975,-21376.0,31484.5,-18045.5,
95.449,-1.178467,-0.1895648,9.713451,-0.009739429,0.00059369208,-0.0015273513,-21632.0,31484.5,-17021.5,
95.571,-1.2191684,-0.206324184,9.744576,-0.0037440508,0.006056171,-0.0019270442,-21888.0,31484.5,-16765.5,
95.688,-1.1952264,-0.22068942,9.708663,-0.004809886,0.005123552,-0.003925513,-21632.0,31740.5,-16765.5,
95.810,-1.226351,-0.22308362,9.756547,-0.00520958,0.00698879,-0.001793813,-22400.0,31484.5,-16765.5,
95.923,-1.2119858,-0.13689235,9.785277,-0.0022784918,0.001526311,-0.0029928944,-21632.0,31228.5,-16509.5,
96.040,-1.21438,-0.208718384,9.708663,-0.0014791042,0.0012598485,-0.005923982,-21888.0,30972.5,-16765.5,
96.163,-1.2119858,-0.21111262,9.744576,-0.0020120292,0.0008601546,0.0015369672,-22656.0,31228.5,-16765.5,
96.280,-1.2167742,-0.15125756,9.620077,-0.0038772672,0.0064558648,-0.0024599694,-22400.0,31996.5,-16509.5,
96.398,-1.2526872,-0.16083437,9.737393,-0.0020120292,6.0766936e-05,-0.0015273513,-22144.0,31996.5,-16253.5,
96.516,-1.2000148,-0.23266042,9.742182,-0.0013458729,0.004723858,0.00073758052,-22400.0,31484.5,-17277.5,
96.639,-1.1760728,-0.179988,9.711058,-0.0017455816,0.0041909368,-0.0028596632,-21888.0,31740.5,-17277.5,
96.754,-1.1880438,-0.191959,9.735,0.0002528876,0.0029918552,-0.0012608878,-22400.0,31484.5,-16509.5,
96.869,-1.2598698,-0.13449815,9.711058,-0.00094617908,-0.0006053895,-0.0015273513,-21632.0,31740.5,-14973.5,
96.986,-1.2095916,-0.237448816,9.785277,-0.004676655,0.0031250828,-0.0025932006,-22144.0,30972.5,-17021.5,
97.104,-1.2455046,-0.196747384,9.859498,-0.00014679134,-0.0026038588,-0.0015273513,-21888.0,31484.5,-15485.5,
97.229,-1.2215626,-0.21111262,9.708663,-0.0038772672,0.0033915452,-0.000727963636,-22400.0,30972.5,-15741.5,
97.348,-1.3508496,-0.10337353,9.732605,-0.0049431176,0.0008601546,-0.0003282698,-22656.0,31484.5,-16765.5,
97.464,-1.3149366,-0.1823822,9.761335,-0.0060089676,-0.0022041648,-0.0008611949,-21632.0,31228.5,-16765.5,
97.580,-1.1976206,-0.110556132,9.679933,-0.0038772672,-0.0014047772,-0.0009944253,-22656.0,31996.5,-16509.5,
97.698,-1.2215626,-0.206324184,9.744576,-0.004809886,0.0021924674,-0.003259357,-21888.0,31740.5,-17277.5,
97.821,-1.1952264,-0.1847764,9.756547,-0.003344342,-0.0015380084,0.00073758052,-22144.0,31228.5,-17021.5,
97.937,-1.2598698,-0.168016976,9.737393,0.000119671224,0.0025921612,-0.00046150108,-21632.0,30972.5,-17789.5,
98.057,-1.2550814,-0.170411168,9.739788,-0.0025449544,6.0766936e-05,0.0016701994,-22400.0,31484.5,-17021.5,
98.175,-1.2215626,-0.16322857,9.67275,0.0021181404,0.0009933859,-0.0037922818,-22400.0,31996.5,-15997.5,
98.293,-1.2287452,-0.15125756,9.770912,-0.0038772672,0.0075217187,-0.0015273513,-23424.0,31740.5,-17021.5,
98.417,-1.2119858,-0.172805368,9.701481,-0.006541893,0.006589096,-0.002726432,-23168.0,32508.5,-16765.5,
98.534,-1.2550814,-0.16562277,9.766124,-0.0026781856,-0.0034032464,-0.0020602756,-22912.0,32252.5,-16509.5,
98.651,-1.2287452,-0.16083437,9.804431,-0.0045434236,0.0019260049,-0.0025932006,-23168.0,31996.5,-17277.5,
98.770,-1.226351,-0.14168076,9.677539,0.0021181404,0.008587565,-0.005124594,-22400.0,31996.5,-16765.5,
98.885,-1.250293,-0.208718384,9.823585,-0.004809886,0.0019260049,0.00073758052,-22912.0,31740.5,-18301.5,
99.009,-1.1449482,-0.06746051,9.691904,-0.0005464852,0.0023256988,7.142406e-05,-22912.0,32252.5,-17533.5,
99.124,-1.2335336,-0.22547782,9.689509,-0.0040104984,0.00019399822,-0.0049913632,-22144.0,32508.5,-17533.5,
99.241,-1.250293,-0.1943532,9.766124,-0.0025449544,0.00019399822,-0.0012608878,-22656.0,32252.5,-17533.5,
99.357,-1.2215626,-0.196747384,9.732605,-0.004276961,-0.0012715459,-0.0019270442,-22656.0,31996.5,-17533.5,
99.481,-1.1736786,-0.16083437,9.689509,0.0002528876,0.0059229432,-0.004191975,-22400.0,31996.5,-16509.5,
99.597,-1.2311394,-0.14168076,9.768518,-0.0038772672,-0.0023373962,-0.0020602756,-22656.0,31740.5,-17533.5,
99.714,-1.2407162,-0.12731555,9.787672,0.0003861338,-0.0004721582,-0.0008611949,-21888.0,31228.5,-17533.5,
99.830,-1.226351,-0.28533286,9.509944,0.0015852153,0.016981134,0.0030025114,-21888.0,31740.5,-17277.5,
99.946,-1.2071974,-0.13449815,9.706269,-0.0017455816,0.0023256988,-0.0019270442,-22656.0,32252.5,-17789.5,
100.070,-1.238322,-0.17759377,9.708663,-0.0044102072,0.006056171,-0.001793813,-22400.0,31996.5,-17021.5,
100.187,-1.202409,-0.16562277,9.713451,-0.004276961,0.0020592324,0.00020465534,-21888.0,31740.5,-15997.5,
100.303,-1.2335336,-0.14407496,9.739788,-0.0062754304,0.0040577016,-0.002726432,-22144.0,31484.5,-16765.5,
100.419,-1.2598698,-0.179988,9.732605,-0.00067971648,0.0028586238,-0.0011276575,-22144.0,32508.5,-17533.5,
100.536,-1.2167742,-0.17759377,9.761335,-0.00694158636,0.0027253888,0.0018034298,-22144.0,31228.5,-18301.5,
100.662,-1.238322,-0.16083437,9.770912,-0.0053428112,-0.0004721582,-0.0025932006,-22656.0,31996.5,-18045.5,
100.778,-1.238322,-0.179988,9.744576,-0.0060089676,0.0023256988,-0.0020602756,-21632.0,32252.5,-17533.5,
100.893,-1.1976206,-0.15844018,9.720634,-0.0026781856,0.0057897084,-0.0012608878,-22144.0,32252.5,-17533.5,
101.011,-1.2550814,-0.16083437,9.730211,-0.0021452606,0.0045906304,0.00087081176,-22656.0,31740.5,-17277.5,
101.129,-1.2407162,-0.191959,9.735,-0.0021452606,0.0009933859,-0.000727963636,-22656.0,31996.5,-17789.5,
101.252,-1.2239568,-0.25660244,9.711058,-0.0012126416,-0.0032700152,-0.0021935068,-22912.0,32508.5,-16765.5,
101.368,-1.2838118,-0.14168076,9.715846,-0.0026781856,0.0020592324,-0.0029928944,-22656.0,-32515.5,-17789.5,
101.486,-1.2311394,-0.191959,9.751759,-0.00081294776,0.00072692332,-0.000727963636,-22656.0,32508.5,-17277.5,
101.603,-1.1880438,-0.16083437,9.675144,-0.0037440508,0.00059369208,-0.0016605817,-22656.0,32252.5,-17533.5,
101.721,-1.2095916,-0.201535792,9.758942,-0.0017455816,0.0021924674,-0.000727963636,-22400.0,31996.5,-17021.5,
101.846,-1.2455046,-0.23266042,9.725423,-0.004276961,0.0023256988,0.0024695872,-23168.0,31740.5,-17277.5,
101.963,-1.2598698,-0.17759377,9.74697,-0.00081294776,0.00059369208,-0.0024599694,-22400.0,31740.5,-16765.5,
102.082,-1.2167742,-0.21590102,9.696692,-0.0057424904,0.0016595423,-0.0005947314,-22656.0,32252.5,-16253.5,
102.199,-1.166496,-0.16322857,9.735,-0.0058757364,0.007921409,0.0026028176,-22400.0,31996.5,-17021.5,
102.321,-1.178467,-0.13689235,9.658385,0.000919044,0.0032583176,-0.0025932006,-23168.0,31996.5,-16509.5,
102.437,-1.2239568,-0.1895648,9.725423,-0.00361080468,0.0027253888,0.0016701994,-22400.0,31996.5,-17021.5,
102.554,-1.2215626,-0.175199568,9.677539,-0.0045434236,-0.0006053895,-0.0020602756,-22656.0,31484.5,-17533.5,
102.672,-1.2119858,-0.21590102,9.821191,-0.0026781856,0.00179276984,0.0012705056,-21632.0,31740.5,-18045.5,
102.791,-1.2119858,-0.203929984,9.653597,0.0003861338,-0.000205695632,-0.0003282698,-22656.0,31740.5,-17789.5,
102.915,-1.2311394,-0.19914159,9.761335,0.000119671224,0.0025921612,0.0026028176,-22400.0,32252.5,-16253.5,
103.035,-1.2239568,-0.170411168,9.67275,-0.00520958,0.0067223272,-0.0009944253,-22400.0,31996.5,-16509.5,
103.151,-1.202409,-0.175199568,9.684721,-0.0032111108,0.001526311,-0.0025932006,-22400.0,31740.5,-16509.5,
103.268,-1.1880438,-0.1847764,9.699086,-0.0030778944,0.0040577016,-0.0005947314,-22144.0,32252.5,-15997.5,
103.384,-1.2431104,-0.15365176,9.742182,-0.002811417,-0.0014047772,-0.0011276575,-22656.0,31228.5,-16765.5,
103.507,-1.226351,-0.22308362,9.727817,-0.00347757336,0.0044573956,0.0015369672,-22400.0,31228.5,-16765.5,
103.625,-1.238322,-0.19914159,9.711058,-0.010405585,-7.246435e-05,0.00047111884,-23168.0,31996.5,-16509.5,
103.743,-1.238322,-0.13689235,9.699086,-0.0025449544,0.006589096,0.0015369672,-22656.0,31484.5,-16253.5,
103.859,-1.2095916,-0.170411168,9.701481,-0.0014791042,0.0027253888,0.001004043,-22912.0,32252.5,-17533.5,
103.977,-1.2455046,-0.19914159,9.725423,-0.0050763636,0.004857093,0.0014037369,-22400.0,32508.5,-16765.5,
104.102,-1.202409,-0.24463144,9.696692,-0.0030778944,0.0057897084,0.0015369672,-22400.0,32764.5,-17021.5,
104.219,-1.21438,-0.179988,9.770912,-0.0064086468,0.0023256988,-0.00046150108,-23424.0,-32515.5,-16765.5,
104.333,-1.238322,-0.179988,9.684721,-0.0022784918,0.0009933859,-0.0016605817,-22656.0,32764.5,-18045.5,
104.449,-1.2239568,-0.1895648,9.670356,-0.0030778944,-0.0012715459,-0.0008611949,-22656.0,-31747.5,-17021.5,
104.571,-1.2191684,-0.168016976,9.708663,-0.00361080468,-0.00180447468,0.000337886632,-23424.0,-32003.5,-17021.5,
104.692,-1.1617076,-0.14407496,9.74697,-0.001878798,-0.000205695632,0.00193666116,-22656.0,-32515.5,-17533.5,
104.811,-1.178467,-0.1823822,9.679933,-0.008806825,0.0021924674,-0.0035258192,-22912.0,-31491.5,-16509.5,
104.926,-1.2431104,-0.179988,9.713451,-0.00414373,0.0027253888,0.002336355,-23168.0,-32003.5,-15997.5,
105.041,-1.2335336,-0.19914159,9.754153,-0.0004132688,0.00019399822,-0.0013941191,-23936.0,32764.5,-17789.5,
105.166,-1.1952264,-0.201535792,9.701481,-0.0040104984,0.0059229432,0.0006043492,-24448.0,-32515.5,-16765.5,
105.284,-1.2239568,-0.17759377,9.725423,-0.008007437,0.0013930798,-0.0029928944,-23936.0,-32003.5,-15485.5,
105.402,-1.238322,-0.1871706,9.713451,-0.0004132688,0.0012598485,-6.180722e-05,-23936.0,-31491.5,-16509.5,
105.517,-1.2095916,-0.201535792,9.74697,-0.0064086468,0.0059229432,0.00193666116,-23936.0,-31235.5,-17533.5,
105.636,-1.2359278,-0.196747384,9.711058,-0.00520958,0.0024589264,0.00366866784,-24192.0,-31491.5,-15997.5,
105.760,-1.1880438,-0.208718384,9.766124,-0.004276961,0.0063226336,-0.0005947314,-23936.0,-30979.5,-16765.5,
105.877,-1.202409,-0.22547782,9.723028,-0.003344342,0.0023256988,-0.0003282698,-23680.0,-31235.5,-17277.5,
105.993,-1.2167742,-0.201535792,9.691904,0.0002528876,0.0049903208,-0.0048581316,-23680.0,-30979.5,-16253.5,
106.111,-1.2431104,-0.1871706,9.775701,-0.0017455816,0.0023256988,0.00193666116,-24192.0,-31747.5,-15741.5,
106.229,-1.1880438,-0.21350682,9.641625,0.0002528876,0.0049903208,-0.0013941191,-23168.0,-30467.5,-16509.5,
106.352,-1.2359278,-0.170411168,9.758942,-0.0016123354,-0.0015380084,-0.0048581316,-23936.0,-30979.5,-16765.5,
106.470,-1.1928322,-0.15604596,9.469243,-0.002411738,0.00738848368,-0.0029928944,-23680.0,-30211.5,-16765.5,
106.588,-1.1808612,-0.208718384,9.691904,-0.0038772672,0.0024589264,-0.0009944253,-23424.0,-30723.5,-17021.5,
106.706,-1.2239568,-0.14886336,9.694298,-0.004676655,0.0025921612,-0.00339258784,-23168.0,-30979.5,-16765.5,
106.830,-1.202409,-0.13928655,9.689509,-0.0040104984,6.0766936e-05,-0.0005947314,-23168.0,-31491.5,-16509.5,
106.946,-1.202409,-0.1943532,9.715846,-0.00028002262,0.004723858,-0.0025932006,-23424.0,-31235.5,-15741.5,
107.062,-1.2933888,-0.206324184,9.708663,-1.3560057e-05,0.00179276984,-0.00339258784,-23424.0,-30467.5,-15997.5,
107.189,-1.2455046,-0.179988,9.730211,-0.0050763636,0.0012598485,-0.0015273513,-24192.0,-30467.5,-16253.5,
107.306,-1.2095916,-0.191959,9.739788,-0.0029446482,0.0023256988,0.0011372734,-23424.0,-30467.5,-15997.5,
107.429,-1.2335336,-0.16083437,9.727817,-0.004676655,0.0075217187,-0.0011276575,-23168.0,-30467.5,-15741.5,
107.548,-1.2670524,-0.1943532,9.766124,-0.0030778944,0.006056171,-0.00046150108,-23936.0,-29955.5,-15741.5,
107.664,-1.2407162,-0.14886336,9.634443,-0.0030778944,0.0003272295,-0.006190444,-23680.0,-30467.5,-15741.5,
107.781,-1.2550814,-0.22787202,9.723028,-0.00028002262,0.0068555624,-0.0035258192,-23680.0,-30211.5,-15997.5,
107.899,-1.2071974,-0.26378504,9.684721,-0.0004132688,0.0019260049,-6.180722e-05,-23680.0,-30211.5,-15997.5,
108.023,-1.2287452,-0.206324184,9.715846,-0.0044102072,0.0025921612,0.00193666116,-23936.0,-30723.5,-15997.5,
108.143,-1.166496,-0.08421992,9.768518,-0.0032111108,0.0012598485,0.00087081176,-23680.0,-29187.5,-15741.5,
108.259,-1.2790234,-0.03394168,9.71824,-0.004809886,0.006589096,-0.0028596632,-23680.0,-30211.5,-15741.5,
108.374,-1.2000148,-0.172805368,9.737393,-0.0020120292,0.006589096,-0.0057907504,-22912.0,-29699.5,-15229.5,
108.497,-1.2215626,-0.196747384,9.742182,-0.0045434236,0.0043241644,0.0006043492,-23680.0,-29443.5,-17021.5,
108.615,-1.1856496,-0.13689235,9.663174,0.000785827636,0.000460457068,-0.0047249004,-23936.0,-29699.5,-17021.5,
108.735,-1.1976206,-0.21829522,9.727817,-0.0021452606,0.0019260049,0.001004043,-23424.0,-29699.5,-15997.5,
108.854,-1.1377656,0.006759748,9.689509,-0.0022784918,0.006189406,0.0024695872,-23424.0,-29699.5,-16253.5,
108.971,-1.250293,-0.1943532,9.684721,-0.003344342,0.0029918552,-0.0015273513,-23424.0,-31491.5,-16765.5,
109.107,-1.1952264,-0.1847764,9.727817,-0.00081294776,0.0057897084,-0.0012608878,-24704.0,-30979.5,-17277.5,
109.224,-1.154525,-0.175199568,9.699086,-0.0053428112,0.00179276984,0.0006043492,-23936.0,-31235.5,-17789.5,
109.343,-1.2526872,-0.15125756,9.670356,-0.003344342,-0.0015380084,-0.0021935068,-24704.0,-30467.5,-18045.5,
109.459,-1.2000148,-0.09619093,9.778095,-0.0013458729,-0.00180447468,-0.0012608878,-24448.0,-30723.5,-17021.5,
109.577,-1.2071974,-0.179988,9.725423,-0.0049431176,0.0019260049,-0.00339258784,-24448.0,-30979.5,-16509.5,
109.702,-1.1712844,-0.12731555,9.639232,-0.0020120292,0.0035247804,-0.0013941191,-24448.0,-30979.5,-16253.5,
109.821,-1.1880438,-0.1847764,9.742182,-0.0057424904,-0.0014047772,-0.0021935068,-24448.0,-30979.5,-17021.5,
109.937,-1.202409,-0.21350682,9.706269,-0.00414373,-7.246435e-05,-0.005657519,-25216.0,-30723.5,-15997.5,
110.052,-1.2909946,-0.239843016,9.727817,-0.006142199,0.000460457068,0.00087081176,-25216.0,-30723.5,-16253.5,
110.171,-1.166496,-0.191959,9.701481,-0.0044102072,0.0041909368,0.0024695872,-24704.0,-30467.5,-15485.5,
110.292,-1.21438,-0.203929984,9.711058,-0.0053428112,0.0008601546,0.002336355,-24960.0,-30211.5,-16509.5,
110.408,-1.262264,-0.208718384,9.730211,-0.0038772672,-0.0026038588,-0.00046150108,-24960.0,-30211.5,-16509.5,
110.526,-1.190438,-0.16322857,9.694298,-0.0025449544,0.0031250828,-0.006190444,-24960.0,-29955.5,-17021.5,
110.642,-1.202409,-0.1895648,9.687116,-0.0060089676,0.0044573956,-0.0008611949,-25216.0,-30467.5,-15997.5,
110.763,-1.2718408,-0.15604596,9.720634,-0.0064086468,-0.000738620736,-0.0008611949,-25216.0,-29699.5,-16765.5,
110.881,-1.2215626,-0.196747384,9.706269,-0.0054760424,0.0025921612,-0.0040587444,-25216.0,-30467.5,-16509.5,
111.000,-1.1976206,-0.15125756,9.761335,-0.002411738,0.0027253888,-0.0019270442,-24960.0,-30467.5,-17277.5,
111.117,-1.2359278,-0.1823822,9.806826,-0.0068083555,-0.0032700152,-0.003259357,-24960.0,-30211.5,-16253.5,
111.234,-1.202409,-0.14168076,9.715846,-0.0026781856,0.0067223272,-0.0028596632,-24960.0,-30723.5,-16253.5,
111.357,-1.178467,-0.16083437,9.715846,-0.0054760424,0.0032583176,-0.0019270442,-24960.0,-29443.5,-15229.5,
111.474,-1.1952264,-0.1823822,9.737393,-0.0060089676,0.0029918552,-0.0011276575,-25216.0,-29955.5,-16253.5,
111.591,-0.9151048,-0.08182572,9.124477,-0.014002845,0.036566128,-0.00792245,-24448.0,-30211.5,-15485.5,
111.706,-1.2455046,-0.1943532,9.708663,-0.00720804936,0.0029918552,0.0011372734,-24704.0,-29443.5,-16253.5,
111.824,-1.2215626,-0.16562277,9.756547,-0.00014679134,0.0013930798,-0.0028596632,-25216.0,-29699.5,-16253.5,
111.948,-1.21438,-0.16083437,9.773307,-0.00347757336,-0.0003389269,0.0035354364,-24960.0,-30211.5,-16509.5,
112.065,-1.2359278,-0.08661412,9.744576,-0.0060089676,0.0036580116,0.0022031236,-24960.0,-29955.5,-16509.5,
112.182,-1.2048032,-0.203929984,9.646414,-0.00414373,0.0008601546,0.00193666116,-24960.0,-30467.5,-16253.5,
112.299,-1.1712844,-0.10337353,9.670356,-0.006142199,0.0043241644,-0.002726432,-24704.0,-30211.5,-16765.5,
112.415,-1.1880438,-0.168016976,9.742182,-0.0032111108,0.0044573956,-0.004458438,-24960.0,-29443.5,-15485.5,
112.539,-1.319725,-0.11773874,9.703875,-0.0014791042,0.0012598485,-0.0013941191,-24960.0,-30979.5,-17533.5,
112.657,-1.1593134,-0.09619093,9.756547,0.0031839908,-0.0003389269,-0.0011276575,-25472.0,-29955.5,-16253.5,
112.774,-1.2095916,-0.24941984,9.732605,-0.0017455816,0.006189406,0.00047111884,-25216.0,-30211.5,-16509.5,
112.890,-1.190438,-0.15604596,9.756547,-0.00094617908,0.0027253888,-0.0003282698,-25472.0,-30467.5,-16253.5,
113.012,-1.250293,-0.21829522,9.773307,0.0038501472,0.0009933859,0.002336355,-25472.0,-30723.5,-16509.5,
113.128,-1.2239568,-0.31645748,9.71824,-0.006541893,0.0045906304,-0.0043252064,-25216.0,-30211.5,-16253.5,
113.244,-1.1952264,-0.08900832,9.732605,0.0029175282,-0.0052684844,-0.0021935068,-25472.0,-30723.5,-16253.5,
113.361,-1.0707281,-0.08182572,9.684721,-0.0026781856,0.008587565,-0.002326738,-24704.0,-30211.5,-15229.5,
113.476,-1.2215626,-0.22068942,9.694298,-0.006142199,0.0003272295,0.00047111884,-24704.0,-30211.5,-16765.5,
113.598,-1.2287452,-0.191959,9.794854,-0.004676655,-0.0026038588,0.0014037369,-24960.0,-30723.5,-17021.5,
113.713,-1.2335336,-0.203929984,9.770912,-0.0010794252,0.00019399822,0.000337886632,-24960.0,-30979.5,-16509.5,
113.832,-1.1736786,-0.175199568,9.737393,-0.004276961,0.0008601546,-0.0009944253,-24960.0,-29955.5,-16509.5,
113.949,-1.1976206,-0.16562277,9.730211,-0.006142199,-0.0003389269,-6.180722e-05,-25216.0,-29955.5,-15997.5,
114.066,-1.2191684,-0.22787202,9.74697,-0.012803763,-0.0015380084,-0.0008611949,-24960.0,-30211.5,-15997.5,
114.188,-1.2287452,-0.11534454,9.696692,-0.0060089676,0.0041909368,-0.00339258784,-24960.0,-30211.5,-16253.5,
114.307,-1.2646582,-0.10337353,9.708663,-0.0037440508,0.00059369208,0.00020465534,-25216.0,-30211.5,-16765.5,
114.425,-1.1976206,-0.08421992,9.818796,-0.0010794252,-0.0048687904,0.00020465534,-24448.0,-29699.5,-17021.5,
114.542,-1.3412728,-0.239843016,9.749365,-0.006675124,-0.0003389269,-0.0013941191,-24960.0,-29955.5,-16509.5,
114.665,-1.2598698,-0.13689235,9.814008,-0.0026781856,-0.0022041648,0.0035354364,-25472.0,-30211.5,-15741.5,
114.783,-1.2359278,-0.14886336,9.689509,0.000785827636,0.0008601546,0.00047111884,-25216.0,-30211.5,-17789.5,
114.901,-1.2478988,-0.179988,9.76373,-0.0037440508,-0.0067340248,-0.0015273513,-24704.0,-29443.5,-16765.5,
115.017,-1.2909946,-0.21590102,9.725423,-0.0054760424,0.003924474,0.0011372734,-24704.0,-29699.5,-16765.5,
115.134,-1.166496,-0.170411168,9.713451,-0.0010794252,0.0031250828,-0.00046150108,-24704.0,-29955.5,-16765.5,
115.258,-1.2191684,-0.16322857,9.732605,-0.002411738,0.0055232496,-0.0008611949,-24448.0,-29443.5,-16765.5,
115.374,-1.2311394,-0.175199568,9.696692,0.0011855215,-0.000871852064,-0.001793813,-24960.0,-30211.5,-16253.5,
115.493,-1.2407162,-0.1847764,9.679933,-0.0004132688,-0.0010050833,-0.0003282698,-24704.0,-30467.5,-16765.5,
115.608,-1.2478988,-0.14886336,9.684721,-0.0037440508,0.005123552,0.0014037369,-24704.0,-29955.5,-16509.5,
115.725,-1.2694466,-0.15604596,9.71824,-0.0014791042,0.000460457068,-0.0015273513,-24704.0,-30467.5,-16765.5,
115.849,-1.1880438,-0.12492134,9.706269,-0.0010794252,0.000460457068,-0.0037922818,-24704.0,-30467.5,-17277.5,
115.970,-1.1856496,-0.15125756,9.780489,-0.001878798,0.0008601546,0.00087081176,-24960.0,-30211.5,-15997.5,
116.086,-1.2598698,-0.16562277,9.67275,0.000919044,0.006189406,-0.0035258192,-24960.0,-30467.5,-17277.5,
116.201,-1.1880438,-0.23266042,9.6488088,-0.0058757364,-0.0006053895,-0.0003282698,-24704.0,-30467.5,-16765.5,
116.318,-1.142554,-0.237448816,9.636837,-0.002411738,0.0041909368,0.0020698932,-24704.0,-29955.5,-16765.5,
116.440,-1.2526872,-0.170411168,9.703875,-1.3560057e-05,-0.0016712397,0.00047111884,-25216.0,-30467.5,-17277.5,
116.559,-1.3101482,-0.15844018,9.699086,-0.0037440508,0.0063226336,-0.001793813,-24448.0,-30467.5,-17021.5,
116.676,-1.262264,-0.053095296,9.670356,-0.00028002262,0.004723858,0.00047111884,-24448.0,-30467.5,-16509.5,
116.792,-1.2526872,-0.16562277,9.804431,-0.0032111108,-0.0010050833,-0.0015273513,-25216.0,-30467.5,-16253.5,
116.916,-1.2407162,-0.22068942,9.675144,-0.0060089676,-0.0024706236,0.00020465534,-24704.0,-30723.5,-16253.5,
117.034,-1.202409,-0.1943532,9.744576,-0.003344342,0.0012598485,-0.00046150108,-24960.0,-31235.5,-15997.5,
117.149,-1.2407162,-0.11534454,9.679933,-0.00081294776,-0.0034032464,-0.0003282698,-25216.0,-30723.5,-16765.5,
117.267,-1.1736786,-0.10097933,9.744576,-0.0029446482,0.001526311,-0.002326738,-26240.0,-30723.5,-16509.5,
117.384,-1.1760728,-0.11534454,9.694298,-0.0058757364,0.00698879,-0.0035258192,-25472.0,-30979.5,-15741.5,
117.506,-1.1736786,-0.170411168,9.699086,-0.0010794252,0.0059229432,-0.007123063,-25472.0,-30723.5,-16253.5,
117.624,-1.2095916,-0.168016976,9.720634,-0.0062754304,0.0012598485,0.00047111884,-25472.0,-30467.5,-16253.5,
117.742,-1.2431104,-0.175199568,9.732605,-0.0037440508,0.00019399822,-0.0028596632,-25984.0,-30979.5,-16253.5,
117.861,-1.1880438,-0.13449815,9.696692,-0.003344342,0.0009933859,0.00047111884,-25984.0,-31235.5,-17789.5,
117.978,-1.2119858,-0.208718384,9.71824,-0.0029446482,-0.000205695632,0.00020465534,-26240.0,-30467.5,-17021.5,
118.103,-1.2000148,-0.093796712,9.749365,-0.0040104984,-0.00180447468,0.0014037369,-25472.0,-31235.5,-17021.5,
118.222,-1.2287452,-0.08900832,9.699086,-0.0020120292,-0.0024706236,-0.003925513,-25728.0,-30979.5,-15997.5,
118.344,-1.2838118,-0.29251546,9.677539,-0.009472981,-0.0015380084,-0.000727963636,-25984.0,-30467.5,-17021.5,
118.462,-1.250293,-0.203929984,9.675144,-0.0013458729,-0.0043358652,0.00087081176,-26752.0,-31235.5,-17277.5,
118.586,-1.226351,-0.21829522,9.658385,-0.0037440508,0.0008601546,-0.0001950385,-26496.0,-31235.5,-17533.5,
118.702,-1.1712844,-0.196747384,9.703875,-0.0053428112,0.008454334,-0.0048581316,-27264.0,-30723.5,-17277.5,
118.820,-1.1952264,-0.237448816,9.809219,-0.0020120292,0.001526311,-0.0021935068,-26496.0,-30979.5,-15997.5,
118.938,-1.1736786,-0.15365176,9.727817,-0.0054760424,-0.0023373962,7.142406e-05,-27008.0,-31235.5,-16765.5,
119.055,-1.2071974,-0.17759377,9.655991,-0.004809886,0.0029918552,-0.005124594,-26496.0,-30723.5,-16509.5,
119.178,-1.2694466,-0.172805368,9.706269,-0.002411738,0.0036580116,7.142406e-05,-26752.0,-30211.5,-16509.5,
119.295,-1.2311394,-0.19914159,9.742182,-0.00414373,0.0028586238,0.0034022052,-26496.0,-30723.5,-17021.5,
119.413,-1.1353714,-0.079431508,9.703875,-0.005609274,0.0009933859,0.0006043492,-26752.0,-30723.5,-16765.5,
119.528,-1.2455046,-0.1871706,9.814008,-0.0032111108,-0.008599266,-0.0012608878,-26752.0,-30979.5,-17277.5,
119.644,-1.202409,-0.19914159,9.703875,-0.0013458729,0.0025921612,-0.0001950385,-27264.0,-30467.5,-16765.5,
119.768,-1.2478988,-0.22068942,9.725423,-0.0012126416,0.0027253888,0.00047111884,-27008.0,-30211.5,-17789.5,
119.886,-1.1712844,-0.108161928,9.730211,-0.002411738,0.001526311,0.00047111884,-27008.0,-30467.5,-17533.5,
120.003,-1.2239568,-0.23266042,9.723028,-0.004276961,0.0067223272,-0.0035258192,-27008.0,-30211.5,-17277.5,
120.120,-1.2550814,-0.1823822,9.782884,-0.002411738,0.0024589264,-0.002726432,-27520.0,-30467.5,-17789.5,
120.241,-1.1856496,-0.15604596,9.790066,-0.0040104984,0.00059369208,-0.0003282698,-27520.0,-30979.5,-16509.5,
120.358,-1.2311394,-0.14646916,9.689509,-0.00014679134,0.0009933859,-0.0019270442,-28032.0,-30723.5,-17021.5,
120.475,-1.2526872,-0.13928655,9.715846,-0.003344342,-0.0016712397,-0.0013941191,-26752.0,-29955.5,-18045.5,
120.593,-1.2215626,-0.16322857,9.713451,-0.00094617908,0.0021924674,0.0016701994,-26752.0,-30211.5,-17021.5,
120.711,-1.238322,-0.237448816,9.723028,-0.0049431176,0.00072692332,0.00073758052,-26752.0,-30211.5,-18301.5,
120.834,-1.238322,-0.14407496,9.766124,0.00065259636,0.000460457068,-0.0003282698,-27008.0,-30979.5,-18045.5,
120.951,-1.2311394,-0.203929984,9.840344,-0.0022784918,0.0033915452,-0.0003282698,-26752.0,-30723.5,-15997.5,
121.069,-1.2287452,-0.15125756,9.768518,-0.0032111108,0.001526311,-0.002326738,-27776.0,-31747.5,-17277.5,
121.185,-1.2167742,-0.203929984,9.706269,0.0005193651,0.0040577016,0.0012705056,-27008.0,-30723.5,-17277.5,
121.303,-1.2335336,-0.21590102,9.76373,-0.00414373,0.00019399822,0.000337886632,-27264.0,-30979.5,-16765.5,
121.425,-1.2526872,-0.1823822,9.74697,-0.004676655,0.0019260049,-0.0036590504,-27264.0,-31235.5,-17021.5,
121.542,-1.2526872,-0.15365176,9.742182,-0.001878798,0.0028586238,-0.0008611949,-27776.0,-31491.5,-17277.5,
121.658,-1.2311394,-0.203929984,9.699086,-0.0017455816,0.0053900144,-0.0015273513,-27520.0,-31235.5,-17021.5,
121.777,-1.190438,-0.16083437,9.730211,-0.0068083555,0.0023256988,-0.0005947314,-27264.0,-31235.5,-16765.5,
121.894,-1.1377656,-0.12970975,9.670356,-0.0021452606,0.005656477,-0.003259357,-27776.0,-30979.5,-17789.5,
122.016,-1.1688902,-0.13689235,9.579376,-0.00520958,0.0029918552,-0.000727963636,-27520.0,-30723.5,-17021.5,
122.133,-1.1976206,-0.237448816,9.670356,-0.0030778944,0.006589096,-0.0037922818,-27520.0,-30979.5,-17277.5,
122.252,-1.2119858,-0.206324184,9.706269,-0.002411738,0.00072692332,-0.002726432,-27264.0,-30723.5,-18045.5,
122.369,-1.2407162,-0.179988,9.775701,0.0011855215,0.0025921612,-0.000727963636,-27776.0,-30467.5,-16765.5,
122.493,-1.1976206,-0.13210395,9.699086,-0.004809886,0.0028586238,0.0016701994,-27776.0,-29955.5,-17789.5,
122.610,-1.2478988,-0.22068942,9.790066,-0.00520958,0.000460457068,7.142406e-05,-27776.0,-30723.5,-16765.5,
122.726,-1.190438,-0.1823822,9.775701,-0.001878798,0.0028586238,0.00087081176,-27520.0,-30211.5,-16509.5,
122.842,-1.1928322,-0.175199568,9.708663,-0.002811417,0.0008601546,0.000337886632,-27776.0,-30979.5,-17533.5,
122.960,-1.274235,-0.168016976,9.768518,-0.0030778944,0.0023256988,0.005134211,-27264.0,-30723.5,-17277.5,
123.083,-1.190438,-0.203929984,9.732605,0.0005193651,0.005256787,0.0030025114,-27008.0,-30211.5,-17277.5,
123.199,-1.2574756,-0.170411168,9.730211,-0.0021452606,0.00179276984,-0.0003282698,-27264.0,-31235.5,-17277.5,
123.318,-1.2071974,-0.13928655,9.742182,-0.00094617908,0.00072692332,0.0006043492,-28032.0,-30211.5,-17789.5,
123.435,-1.238322,-0.32603428,9.696692,-0.003344342,-0.000871852064,-0.0008611949,-27264.0,-30211.5,-18301.5,
123.552,-1.2455046,-0.191959,9.703875,-0.0030778944,0.0043241644,-0.008721838,-28288.0,-30467.5,-17021.5,
123.673,-1.2359278,-0.13928655,9.660779,-0.0020120292,0.0032583176,0.00073758052,-27776.0,-30723.5,-17277.5,
123.791,-1.238322,-0.21829522,9.766124,-0.00520958,0.0025921612,-0.0029928944,-28032.0,-30723.5,-18557.5,
123.907,-1.2670524,-0.208718384,9.744576,-0.0020120292,0.003924474,-0.003925513,-28288.0,-30723.5,-18045.5,
124.023,-1.2048032,-0.12970975,9.766124,-0.0017455816,0.0032583176,0.0011372734,-27520.0,-31235.5,-17277.5,
124.141,-1.1712844,-0.28772706,9.780489,-0.00361080468,0.003924474,-0.0012608878,-28544.0,-30723.5,-17277.5,
124.264,-1.21438,-0.26378504,9.665567,-0.002411738,0.0045906304,-0.0008611949,-27520.0,-30723.5,-17277.5,
124.379,-1.1808612,-0.1895648,9.701481,-0.0025449544,0.0025921612,-0.0001950385,-28288.0,-29955.5,-17021.5,
124.495,-1.21438,-0.1823822,9.703875,-0.0012126416,0.0012598485,-0.0060572124,-28032.0,-31235.5,-16765.5,
124.610,-1.2670524,-0.1847764,9.682327,-0.00361080468,0.0025921612,-0.0013941191,-28288.0,-30979.5,-17021.5,
124.733,-1.2048032,-0.14407496,9.768518,-0.00081294776,0.0040577016,-6.180722e-05,-28544.0,-30723.5,-16509.5,
124.850,-1.2119858,-0.23266042,9.739788,-0.00361080468,-0.0014047772,0.001004043,-28544.0,-30467.5,-17021.5,
124.968,-1.0180554,0.13604665,9.799643,-0.0082739,0.008987259,-0.00046150108,-28032.0,-30211.5,-16253.5,
125.084,-1.2335336,-0.14407496,9.720634,-0.00028002262,0.0032583176,-0.0012608878,-28288.0,-30211.5,-17533.5,
125.202,-1.2574756,-0.14886336,9.687116,-0.002811417,0.0025921612,-0.000727963636,-27776.0,-30723.5,-17789.5,
125.326,-1.2598698,-0.31166908,9.711058,-0.0022784918,0.0031250828,0.0022031236,-28032.0,-29955.5,-17789.5,
125.444,-1.1952264,-0.24463144,9.737393,-0.001878798,0.0003272295,-0.0021935068,-28032.0,-30211.5,-17789.5,
125.560,-1.1976206,-0.16083437,9.744576,-0.002811417,-0.00273709,0.0024695872,-27776.0,-29443.5,-17789.5,
125.675,-1.1952264,-0.15365176,9.71824,-0.0044102072,0.00059369208,-0.004458438,-28288.0,-30467.5,-17533.5,
125.791,-1.2455046,-0.21350682,9.696692,-0.0040104984,-0.004202634,-0.003259357,-28544.0,-30723.5,-17277.5,
125.913,-1.2790234,-0.1943532,9.758942,-0.0025449544,-0.000871852064,-0.000727963636,-28032.0,-29955.5,-16765.5,
126.032,-1.226351,-0.191959,9.739788,-0.0044102072,-0.0058014056,-0.0008611949,-28800.0,-30467.5,-16765.5,
126.147,-1.190438,-0.206324184,9.79246,-0.0012126416,0.0029918552,0.00073758052,-28800.0,-29955.5,-17021.5,
126.263,-1.2335336,-0.19914159,9.706269,-0.0082739,0.0044573956,-0.0009944253,-28544.0,-30211.5,-17277.5,
126.386,-1.2407162,-0.14646916,9.682327,-0.0013458729,0.0024589264,0.00193666116,-28032.0,-30211.5,-16765.5,
126.505,-1.1688902,-0.21111262,9.751759,-0.006142199,0.0057897084,-0.0009944253,-29056.0,-30723.5,-18301.5,
126.621,-1.2287452,-0.1871706,9.739788,-0.0038772672,0.0041909368,-0.003259357,-28288.0,-30723.5,-17789.5,
126.737,-1.250293,-0.179988,9.749365,-0.0016123354,0.0013930798,-0.00046150108,-29056.0,-30211.5,-17533.5,
126.853,-1.2335336,-0.17759377,9.730211,-0.0025449544,-0.0004721582,-0.0012608878,-27776.0,-29955.5,-17533.5,
126.977,-1.226351,-0.1895648,9.749365,-0.0029446482,0.0013930798,0.00087081176,-28544.0,-29955.5,-17789.5,
127.094,-1.2215626,-0.170411168,9.732605,-0.0054760424,0.0029918552,-0.0009944253,-28288.0,-29699.5,-17789.5,
127.212,-1.2095916,-0.11773874,9.684721,-0.002811417,0.0008601546,-0.0009944253,-28032.0,-29699.5,-17789.5,
127.327,-1.21438,-0.203929984,9.725423,0.00185167792,0.0024589264,-6.180722e-05,-28544.0,-29699.5,-16765.5,
127.445,-1.2359278,-0.26617924,9.670356,-0.002411738,0.0032583176,-0.0047249004,-28288.0,-30723.5,-18045.5,
127.568,-1.202409,-0.175199568,9.732605,0.0017184466,0.0064558648,-0.0021935068,-27520.0,-30467.5,-16509.5,
127.686,-1.2167742,-0.172805368,9.720634,-0.008407116,0.004857093,-0.0025932006,-28288.0,-30723.5,-15997.5,
127.803,-1.1808612,-0.19914159,9.655991,-0.00694158636,0.0032583176,-0.0012608878,-28800.0,-30723.5,-17533.5,
127.923,-1.2335336,-0.1823822,9.833161,-0.0049431176,6.0766936e-05,0.0018034298,-28288.0,-30723.5,-15997.5,
128.041,-1.2526872,-0.23026622,9.706269,-0.0050763636,0.00179276984,-0.0009944253,-28544.0,-30467.5,-17021.5,
128.165,-1.2550814,-0.14407496,9.735,-1.3560057e-05,0.0020592324,-0.0015273513,-28288.0,-30979.5,-16253.5,
128.282,-1.2431104,-0.172805368,9.670356,0.000919044,-0.000738620736,-0.0005947314,-28800.0,-30211.5,-16509.5,
128.399,-1.2239568,-0.1943532,9.727817,-0.00361080468,0.001526311,0.000337886632,-28800.0,-30467.5,-17277.5,
128.517,-1.2550814,-0.168016976,9.76373,-0.0037440508,0.00072692332,-0.003925513,-29312.0,-30211.5,-16509.5,
128.640,-1.2239568,-0.179988,9.691904,-0.007074803,-0.000738620736,0.0024695872,-28288.0,-29699.5,-17277.5,
128.756,-1.2431104,-0.168016976,9.737393,-0.00081294776,0.0013930798,-0.00046150108,-28544.0,-30979.5,-17277.5,
128.875,-1.2574756,-0.17759377,9.713451,-0.001878798,0.0012598485,0.00087081176,-27776.0,-30467.5,-18301.5,
128.994,-1.2239568,-0.170411168,9.71824,-0.0030778944,0.0040577016,-0.0003282698,-28032.0,-30467.5,-16765.5,
129.111,-1.250293,-0.172805368,9.737393,-0.0050763636,0.0013930798,0.0011372734,-28800.0,-30979.5,-17021.5,
129.235,-1.202409,-0.206324184,9.715846,-0.0045434236,0.006589096,0.0014037369,-28544.0,-30723.5,-17277.5,
129.352,-1.2191684,-0.27336186,9.71824,-0.00028002262,0.0032583176,0.0031357436,-28288.0,-30723.5,-17533.5,
129.469,-1.21438,-0.16322857,9.713451,-0.0030778944,0.000460457068,-0.0008611949,-28544.0,-31235.5,-17277.5,
129.586,-1.2694466,-0.235054608,9.711058,0.000119671224,0.0032583176,-0.0020602756,-28800.0,-30979.5,-17277.5,
129.711,-1.226351,-0.21350682,9.720634,-0.0037440508,0.001526311,-0.0029928944,-28800.0,-31747.5,-16765.5,
129.833,-1.21438,-0.16562277,9.794854,-0.001878798,0.0031250828,0.0016701994,-28544.0,-30723.5,-16765.5,
129.948,-1.2478988,-0.1871706,9.703875,-0.00081294776,0.005656477,-0.0016605817,-28544.0,-30979.5,-17533.5,
130.064,-1.2287452,-0.16083437,9.663174,-0.0030778944,0.0040577016,-0.0001950385,-28800.0,-30723.5,-16765.5,
130.181,-1.3101482,-0.1943532,9.787672,-0.00094617908,-0.0026038588,-0.002326738,-28800.0,-30211.5,-17277.5,
130.303,-1.2981772,-0.191959,9.723028,-0.0017455816,0.0021924674,-0.0035258192,-29568.0,-31747.5,-18813.5,
130.419,-1.226351,-0.196747384,9.689509,-0.0004132688,0.0024589264,0.00193666116,-28544.0,-30979.5,-17277.5,
130.538,-1.238322,-0.168016976,9.696692,-0.0054760424,0.0028586238,-0.0029928944,-28544.0,-30979.5,-17789.5,
130.656,-1.2311394,-0.19914159,9.725423,-0.0014791042,0.0055232496,0.0030025114,-29056.0,-31235.5,-18813.5,
130.775,-1.2048032,-0.168016976,9.651202,-0.0004132688,0.0013930798,0.0011372734,-29824.0,-32259.5,-17021.5,
130.899,-1.2431104,-0.170411168,9.768518,0.0005193651,-0.0039361716,-0.0016605817,-29568.0,-32003.5,-18557.5,
131.017,-1.202409,-0.21350682,9.665567,-0.0060089676,0.00179276984,-0.0013941191,-30080.0,-31491.5,-18301.5,
131.136,-1.1712844,-0.14407496,9.744576,-0.001878798,0.0027253888,0.00193666116,-29056.0,-30979.5,-17021.5,
131.253,-1.2478988,-0.1823822,9.799643,-0.00081294776,-0.0020709336,-0.000727963636,-29056.0,-30979.5,-16765.5,
131.371,-1.2407162,-0.16083437,9.742182,-0.002411738,-0.0012715459,-0.001793813,-28288.0,-31235.5,-17021.5,
131.494,-1.2550814,-0.172805368,9.67275,-0.0030778944,0.001526311,-0.0029928944,-28800.0,-31235.5,-17277.5,
131.611,-1.09467,-0.15125756,9.754153,-0.0025449544,0.0016595423,-0.0020602756,-29056.0,-31235.5,-17021.5,
131.728,-1.2095916,-0.16562277,9.775701,-0.00028002262,0.00072692332,-0.0019270442,-28544.0,-31235.5,-17789.5,
131.846,-1.1497366,-0.21829522,9.780489,-0.0021452606,0.006189406,0.0016701994,-28800.0,-31235.5,-18045.5,
131.963,-1.1521308,-0.172805368,9.778095,-0.0021452606,6.0766936e-05,-0.0005947314,-29056.0,-30979.5,-17789.5,
132.088,-1.1569192,-0.0363358768,9.660779,-0.0044102072,0.00698879,-0.0025932006,-29056.0,-30723.5,-17789.5,
132.205,-1.2119858,-0.16322857,9.708663,-0.0037440508,0.0044573956,-0.001793813,-28544.0,-31747.5,-18301.5,
132.322,-1.2191684,-0.22787202,9.737393,-0.0044102072,0.00072692332,0.00020465534,-28032.0,-30723.5,-17533.5,
132.440,-1.1808612,-0.15365176,9.74697,-0.0010794252,0.0011266135,-0.0049913632,-28288.0,-30979.5,-17021.5,
132.562,-1.238322,-0.19914159,9.744576,-0.003344342,0.008987259,0.001004043,-28288.0,-32003.5,-18301.5,
