# epoch_start_s=1609461127
timestamp_s,accel_x,accel_y,accel_z,gyro_x,gyro_y,gyro_z,mag_x,mag_y,mag_z,wind_vane_deg
# wind_vane_deg is blank for the first 270 s, populated for the final 30 s
0.110,1.160668,2.5039122,8.379881,-0.2888589,0.114906092,-0.022577886,-3456.0,21244.5,-25725.5,
0.226,-0.055586456,0.30124656,11.322355,-0.216247868,0.051488028,-0.023643736,-6528.0,24828.5,-23933.5,
0.345,0.7536537,1.2206199,9.823585,0.05647649,-0.024720244,0.0048677484,-7552.0,26364.5,-24189.5,
0.461,0.37297564,1.1176694,9.840344,-0.00933975,0.0049903208,-0.00339258784,-7040.0,25852.5,-24957.5,
0.584,0.5381756,1.1511881,9.871469,-0.0026781856,0.0008601546,-0.0024599694,-6784.0,26620.5,-25213.5,
0.700,0.8446334,1.1416113,9.538674,-0.011604682,0.023642694,-0.0047249004,-7040.0,26108.5,-25725.5,
0.816,0.70576968,1.1535823,9.723028,-0.0032111108,0.003924474,-6.180722e-05,-6784.0,25852.5,-26493.5,
0.931,0.6554915,1.2038605,9.804431,-0.006142199,0.0032583176,0.000337886632,-7040.0,26108.5,-24701.5,
1.049,0.602819,1.1152752,9.85471,-0.00081294776,-0.0024706236,-6.180722e-05,-7296.0,26620.5,-24445.5,
1.169,0.6123958,1.1799185,9.895411,-0.0005464852,0.00019399822,0.0006043492,-6528.0,27132.5,-24445.5,
1.285,0.5836654,1.1775243,9.897805,-0.0058757364,0.0013930798,-0.0045916692,-7040.0,26364.5,-24957.5,
1.401,0.602819,1.1679475,9.909776,-0.00414373,0.0055232496,-0.0012608878,-7040.0,27132.5,-24957.5,
1.515,0.492685736,1.0338724,9.900199,-0.006675124,-0.0004721582,0.0020698932,-7296.0,26364.5,-25213.5,
1.631,0.70337544,1.2589274,9.928929,0.0002528876,0.0016595423,-0.002726432,-6784.0,25852.5,-26493.5,
1.753,0.5956364,1.1224578,9.83795,0.0010522902,0.008720797,0.0012705056,-7040.0,26620.5,-25213.5,
1.869,0.6339436,1.1607649,9.799643,-0.003344342,0.003791239,0.00047111884,-7040.0,26108.5,-25469.5,
1.984,0.5740886,1.1152752,9.885834,-0.007607743,-0.0028703212,-0.0012608878,-7296.0,26364.5,-25213.5,
2.100,0.5812712,1.1392171,9.873863,-0.0030778944,-0.0023373962,-0.0040587444,-7296.0,25852.5,-24701.5,
2.217,0.5740886,1.1823127,9.885834,0.00185167792,0.0035247804,-0.0025932006,-6784.0,26108.5,-25213.5,
2.342,0.6411262,1.0937274,9.881045,-0.00081294776,-0.0052684844,0.0030025114,-7040.0,25852.5,-25981.5,
2.459,0.70098132,1.1751301,9.732605,-0.0037440508,0.00698879,-0.0011276575,-6528.0,26108.5,-25725.5,
2.575,0.66746248,1.076968,9.799643,-0.0004132688,0.009520184,0.0016701994,-6272.0,26108.5,-24957.5,
2.690,0.6291552,1.1607649,9.926536,-1.3560057e-05,0.0016595423,-0.0009944253,-6784.0,26876.5,-24445.5,
2.807,0.6483089,1.1272462,9.830768,-0.002411738,0.0049903208,-0.0019270442,-6784.0,26108.5,-24957.5,
2.929,0.6363378,1.1487939,9.76373,-0.0050763636,0.0059229432,-0.0019270442,-7040.0,25852.5,-25213.5,
3.045,0.5932422,1.124852,9.890622,-0.0020120292,0.006056171,-0.0001950385,-7296.0,25852.5,-24957.5,
3.159,0.6459147,1.1344287,9.926536,-0.0053428112,0.0035247804,-0.0020602756,-6784.0,25852.5,-24701.5,
3.278,0.6052132,1.1727359,9.818796,-0.003344342,0.0057897084,-0.0008611949,-6784.0,25596.5,-25213.5,
3.393,0.6411262,1.1344287,9.873863,-0.0062754304,-0.0024706236,-0.002326738,-6272.0,26364.5,-25725.5,
3.515,0.6411262,1.1440055,9.861892,-0.0012126416,-0.000205695632,-0.0011276575,-6784.0,25596.5,-25725.5,
3.633,0.6339436,1.1463997,9.847527,-0.0012126416,-0.0012715459,0.0012705056,-7040.0,25084.5,-26749.5,
3.750,0.6291552,1.1176694,9.897805,-0.0014791042,0.0020592324,-0.003925513,-6784.0,26620.5,-25469.5,
3.866,0.5980306,1.1152752,9.88344,-0.0092065184,0.0021924674,-6.180722e-05,-7040.0,26108.5,-26237.5,
3.981,0.66506824,1.1703417,9.876257,-0.00414373,0.00059369208,0.001004043,-7040.0,25852.5,-26237.5,
4.102,0.5956364,1.1847069,9.938506,-0.006541893,0.0011266135,-0.0031261258,-7040.0,25596.5,-25725.5,
4.219,0.6052132,1.1392171,9.842738,-0.0040104984,0.0020592324,-0.0005947314,-6784.0,25596.5,-25213.5,
4.335,0.6339436,1.1918895,9.847527,-0.0057424904,0.003791239,-0.0028596632,-7040.0,26108.5,-25725.5,
4.450,0.6339436,1.1703417,9.86668,-0.002411738,-0.0015380084,0.0020698932,-7040.0,26108.5,-26749.5,
4.570,0.6219726,1.1176694,9.904987,-0.002411738,-0.0003389269,-0.0060572124,-6784.0,26620.5,-25213.5,
4.691,0.6219726,1.1535823,9.888228,-0.00014679134,0.0053900144,-0.0021935068,-6784.0,26620.5,-27517.5,
4.808,0.5477524,1.1727359,9.869075,-0.00347757336,0.0011266135,-0.0049913632,-6272.0,26108.5,-25469.5,
4.926,0.6530973,1.1703417,9.926536,-0.0025449544,0.0028586238,-0.0005947314,-7296.0,26108.5,-25469.5,
5.042,0.67464504,1.1535823,9.849921,-0.0054760424,0.004857093,-0.0049913632,-6784.0,25852.5,-25213.5,
5.159,0.6507031,1.1463997,9.859498,-0.003344342,0.00912049,-0.0029928944,-6784.0,25852.5,-25469.5,
5.280,0.58605964,1.1056984,9.936112,0.001451984,0.001526311,0.0006043492,-7296.0,27132.5,-24957.5,
5.394,0.602819,1.1440055,9.878652,-0.0029446482,0.0035247804,0.0015369672,-7040.0,26364.5,-24701.5,
5.512,0.6004248,1.1607649,9.85471,-0.0040104984,0.0016595423,-0.0008611949,-7040.0,26364.5,-25469.5,
5.628,0.6219726,1.2062547,9.83795,-0.0025449544,0.0016595423,-0.0024599694,-7040.0,26364.5,-26237.5,
5.744,0.5932422,1.1511881,9.835556,0.00185167792,-0.00380293668,-0.0005947314,-6784.0,26876.5,-25725.5,
5.867,0.6483089,1.1751301,9.770912,-0.0037440508,0.0012598485,-0.001793813,-6784.0,26620.5,-25469.5,
5.983,0.6291552,1.1392171,9.861892,-0.003344342,0.003924474,-0.0025932006,-6272.0,27132.5,-24957.5,
6.098,0.6076074,1.1344287,9.969631,-0.0054760424,-0.0004721582,-0.0015273513,-7040.0,26364.5,-24701.5,
6.215,0.602819,1.1320345,9.847527,-0.0038772672,0.001526311,0.00087081176,-6784.0,26876.5,-26493.5,
6.330,0.6315494,1.1942837,9.864286,-0.00014679134,0.0023256988,0.00020465534,-7040.0,26620.5,-25469.5,
6.453,0.6004248,1.1631591,9.945689,0.0005193651,-0.000205695632,-0.0036590504,-7040.0,26364.5,-24957.5,
6.571,0.6243668,1.1942837,9.802037,-0.0073412808,0.00059369208,0.00073758052,-6784.0,26876.5,-25213.5,
6.688,0.5980306,1.1583707,9.845133,-0.002411738,0.0029918552,-0.0019270442,-6784.0,26364.5,-24957.5,
6.804,0.626761,1.1655533,9.871469,-0.00028002262,0.004857093,-0.0025932006,-6528.0,26108.5,-24445.5,
6.920,0.6315494,1.1775243,9.869075,-0.0012126416,0.0012598485,0.00087081176,-6784.0,25852.5,-25469.5,
7.043,0.6435204,1.1631591,9.821191,-0.003344342,0.0012598485,-6.180722e-05,-6784.0,26364.5,-25469.5,
7.158,0.6435204,1.1607649,9.876257,-0.006142199,0.006189406,7.142406e-05,-6784.0,25852.5,-24701.5,
7.273,0.6291552,1.1200636,9.945689,-0.0021452606,-0.0047355556,-0.000727963636,-6784.0,25852.5,-24957.5,
7.391,0.6435204,1.1320345,9.758942,-0.0017455816,0.0028586238,-0.0063236756,-6272.0,26108.5,-24957.5,
7.507,0.6004248,1.1559765,9.950478,-0.004276961,0.006189406,-0.0025932006,-6784.0,25852.5,-25981.5,
7.628,0.6530973,1.1894953,9.79246,-0.002811417,0.00072692332,0.0022031236,-7296.0,26620.5,-25213.5,
7.743,0.6411262,1.1823127,9.885834,-0.0082739,0.006589096,-0.000727963636,-6528.0,26620.5,-26237.5,
7.858,0.6578857,1.1296404,9.936112,-0.0045434236,0.006589096,-0.000727963636,-7296.0,25852.5,-25469.5,
7.975,0.6123958,1.1320345,9.86668,-0.004676655,-0.0020709336,-0.0009944253,-7040.0,25340.5,-25725.5,
8.090,0.5740886,1.1775243,9.85471,-0.00094617908,-0.0015380084,-0.0020602756,-7552.0,26108.5,-25469.5,
8.212,0.6100016,1.1224578,9.979208,0.0021181404,0.00072692332,0.00073758052,-6016.0,26108.5,-24957.5,
8.328,0.590848,1.1655533,9.926536,-0.0029446482,0.00059369208,0.001004043,-6784.0,25596.5,-24445.5,
8.444,0.6243668,1.1440055,9.881045,-0.0037440508,0.00072692332,-0.0016605817,-6784.0,25596.5,-24957.5,
8.561,0.5956364,1.1392171,9.83795,-0.0020120292,0.0020592324,0.000337886632,-6784.0,25596.5,-24189.5,
8.678,0.6123958,1.1463997,9.852315,-0.0020120292,0.0011266135,-0.00339258784,-6272.0,26364.5,-24445.5,
8.802,0.6171842,1.1918895,9.809219,-0.00081294776,0.0008601546,-0.0036590504,-6784.0,25852.5,-25213.5,
8.918,0.590848,1.1559765,9.921747,-0.0044102072,0.00059369208,0.0006043492,-6528.0,25852.5,-24701.5,
9.034,0.6554915,1.1320345,9.869075,-0.00694158636,6.0766936e-05,-0.004458438,-7040.0,26108.5,-24701.5,
9.151,0.6219726,1.1823127,9.85471,0.0003861338,-7.246435e-05,0.00047111884,-6784.0,25596.5,-25469.5,
9.266,0.6076074,1.1368229,9.758942,-0.0049431176,0.0024589264,-0.0031261258,-7296.0,26108.5,-24445.5,
9.388,0.6076074,1.1296404,9.895411,-0.0004132688,0.0021924674,0.00020465534,-7040.0,26364.5,-25725.5,
9.505,0.6291552,1.2086489,9.900199,-0.00347757336,0.0019260049,0.0015369672,-6528.0,26364.5,-24957.5,
9.624,0.6219726,1.1487939,9.933718,-0.003344342,-0.0003389269,-0.001793813,-7040.0,26108.5,-25213.5,
9.739,0.602819,1.1823127,9.878652,-0.00081294776,0.00059369208,0.000337886632,-6528.0,25852.5,-25981.5,
9.856,0.6052132,1.0841506,9.840344,-0.0016123354,0.0013930798,-0.002726432,-6528.0,26620.5,-25981.5,
9.978,0.6100016,1.1775243,9.852315,-0.0050763636,0.0016595423,-0.0015273513,-7296.0,25596.5,-25469.5,
10.096,0.6291552,1.1775243,9.847527,-0.0040104984,-7.246435e-05,0.00087081176,-6784.0,25852.5,-26237.5,
10.212,0.6315494,1.1631591,9.811614,-0.0017455816,0.005256787,0.0020698932,-6784.0,25596.5,-25725.5,
10.328,0.6052132,1.1679475,9.818796,-0.006675124,0.0031250828,-0.0028596632,-6784.0,25852.5,-25725.5,
10.443,0.66027988,1.2182257,9.869075,-0.0057424904,0.00019399822,7.142406e-05,-6784.0,25852.5,-24701.5,
10.566,0.5812712,1.2134373,9.840344,-0.005609274,0.0003272295,-0.0021935068,-6528.0,25340.5,-25469.5,
10.681,0.6004248,1.1990721,9.902594,-0.0026781856,0.00072692332,0.00073758052,-6528.0,25852.5,-24957.5,
10.798,0.626761,1.1918895,9.828373,-0.007074803,-0.000205695632,-0.0028596632,-6528.0,25852.5,-24701.5,
10.914,0.6291552,1.2158315,9.950478,0.0010522902,0.0013930798,0.00087081176,-7040.0,25596.5,-25469.5,
11.032,0.5956364,1.1440055,9.881045,0.0011855215,0.0028586238,-0.003259357,-7040.0,26108.5,-25725.5,
11.154,0.6554915,1.1320345,9.85471,-0.0030778944,-0.0012715459,-0.0021935068,-7040.0,25852.5,-24445.5,
11.270,0.6171842,1.1487939,9.893017,-0.0057424904,0.00179276984,0.00020465534,-6784.0,26364.5,-25469.5,
11.388,0.638732,1.1080926,9.98639,-0.002811417,-0.0011383183,-0.003259357,-6528.0,26364.5,-24701.5,
11.503,0.6195784,1.1224578,9.806826,-0.006675124,6.0766936e-05,-0.0009944253,-7040.0,25852.5,-24445.5,
11.618,0.6100016,1.1272462,9.926536,-0.0049431176,-0.0014047772,0.0018034298,-7040.0,26108.5,-24957.5,
11.740,0.6100016,1.1487939,9.861892,-0.005609274,0.0044573956,-0.0029928944,-7296.0,25596.5,-25213.5,
11.856,0.6507031,1.1631591,9.876257,-0.0037440508,0.007122021,0.0020698932,-7296.0,26108.5,-23421.5,
11.972,0.6363378,1.1463997,9.924141,-0.0062754304,0.000460457068,-0.00046150108,-6528.0,26108.5,-25213.5,
12.090,0.61479,1.1751301,9.933718,-0.00081294776,0.000460457068,-0.00339258784,-6784.0,25852.5,-26493.5,
12.209,0.5884538,1.1751301,9.926536,-0.0049431176,0.00072692332,-0.0013941191,-6784.0,26108.5,-24957.5,
12.331,0.5812712,1.1416113,9.909776,-0.0022784918,-0.0023373962,0.00073758052,-7040.0,26108.5,-25213.5,
12.448,0.6171842,1.1511881,9.919353,-0.00414373,0.0011266135,-0.004191975,-6528.0,25852.5,-25469.5,
12.563,0.6004248,1.1392171,9.842738,-0.0040104984,-0.0011383183,-0.0009944253,-6784.0,26364.5,-26493.5,
12.679,0.626761,1.2038605,9.840344,-0.0032111108,0.0036580116,0.003801899,-7040.0,26108.5,-24957.5,
12.794,0.6052132,1.1775243,9.876257,-0.004809886,0.00179276984,0.0018034298,-6784.0,25852.5,-24957.5,
12.917,0.6171842,1.1679475,9.938506,-0.00347757336,6.0766936e-05,-0.0019270442,-6784.0,26108.5,-24445.5,
13.035,0.5980306,1.1559765,9.773307,-0.0038772672,-0.0016712397,-0.0012608878,-6784.0,26364.5,-25469.5,
13.152,0.66027988,1.2134373,9.881045,-0.0050763636,-0.00313678,-0.0013941191,-7040.0,25852.5,-25213.5,
13.268,0.638732,1.2014663,9.873863,-0.0057424904,0.0011266135,0.00020465534,-7040.0,26364.5,-25725.5,
13.385,0.6243668,1.1511881,9.849921,-0.0054760424,0.0032583176,-0.00339258784,-7296.0,26364.5,-26493.5,
13.509,0.6291552,1.1655533,9.852315,-0.0058757364,-0.0014047772,-0.000727963636,-6272.0,26620.5,-24957.5,
13.627,0.5980306,1.1823127,9.881045,-0.0022784918,0.007122021,-6.180722e-05,-7296.0,26108.5,-25469.5,
13.742,0.5932422,1.1918895,9.926536,-0.0013458729,0.0032583176,-0.0005947314,-7808.0,26364.5,-25213.5,
13.858,0.5884538,1.1368229,9.864286,0.000785827636,0.0032583176,0.0027360496,-7808.0,25852.5,-25469.5,
13.975,0.6339436,1.1559765,9.861892,-0.005609274,0.005656477,-0.0012608878,-7040.0,26876.5,-25469.5,
14.095,0.6100016,1.112881,9.897805,-0.00014679134,0.0016595423,-0.0003282698,-7552.0,26620.5,-26237.5,
14.211,0.6219726,1.1416113,9.806826,-0.0021452606,0.0024589264,0.0012705056,-7552.0,26620.5,-25725.5,
14.328,0.5597234,1.1320345,9.818796,-0.0017455816,0.004857093,0.0015369672,-7296.0,26108.5,-25725.5,
14.444,0.6459147,1.1990721,9.878652,-0.0013458729,0.001526311,0.0018034298,-7296.0,26364.5,-25725.5,
14.560,0.638732,1.1990721,9.928929,-0.004676655,0.0032583176,-0.0009944253,-7552.0,26108.5,-25981.5,
14.681,0.590848,1.1703417,9.86668,-0.0014791042,0.0041909368,-0.0019270442,-6784.0,26364.5,-25213.5,
14.797,0.6483089,1.2038605,9.928929,-0.0004132688,-0.0014047772,-0.0024599694,-6784.0,26620.5,-25469.5,
14.913,0.6483089,1.0793622,9.821191,-0.00414373,0.0027253888,-0.0020602756,-7552.0,26364.5,-24957.5,
15.029,0.638732,1.0506318,9.881045,0.0013187528,-0.0023373962,-0.0011276575,-6784.0,25852.5,-24957.5,
15.145,0.66267408,1.124852,9.888228,-0.002411738,0.0044573956,-0.0020602756,-7040.0,25596.5,-25213.5,
15.267,0.602819,1.1320345,9.885834,-0.00720804936,0.0041909368,0.00047111884,-7040.0,26364.5,-24957.5,
15.384,0.590848,1.2349851,9.873863,-0.0045434236,0.0045906304,-0.0025932006,-6528.0,26876.5,-25213.5,
15.500,0.5956364,1.1775243,9.809219,0.0002528876,0.003924474,-0.0012608878,-6784.0,26620.5,-24189.5,
15.615,0.6363378,1.1463997,9.876257,-0.0022784918,-0.0004721582,-0.0025932006,-6528.0,26876.5,-25213.5,
15.731,0.6123958,1.076968,9.926536,-0.0020120292,0.0009933859,-0.0019270442,-6528.0,26620.5,-25725.5,
15.858,0.590848,1.0865448,9.871469,-0.0049431176,0.0035247804,0.00073758052,-5760.0,26620.5,-25981.5,
15.975,0.5501466,1.1392171,9.91217,0.0003861338,0.0009933859,-0.0028596632,-6784.0,26364.5,-25213.5,
16.090,0.6483089,1.1799185,9.782884,-0.00347757336,0.0027253888,-0.005124594,-7040.0,26620.5,-24957.5,
16.207,0.6219726,1.1344287,9.921747,-0.006541893,0.0031250828,0.0006043492,-6784.0,26876.5,-25213.5,
16.322,0.6435204,1.1296404,9.888228,-0.0004132688,0.0020592324,-0.0035258192,-6528.0,26108.5,-24957.5,
16.444,0.6076074,1.2062547,9.835556,-0.001878798,0.003791239,0.0016701994,-6784.0,25596.5,-25469.5,
16.559,0.5980306,1.1894953,9.890622,-0.0029446482,-7.246435e-05,-0.003259357,-6528.0,25852.5,-24957.5,
16.675,0.6435204,1.1655533,9.835556,0.000919044,0.00019399822,-0.0019270442,-7040.0,26108.5,-25981.5,
16.791,0.66027988,1.124852,9.876257,-0.0062754304,0.00019399822,-0.0020602756,-6784.0,25852.5,-25981.5,
16.908,0.6363378,1.2517448,9.893017,-0.006541893,0.0028586238,-0.001793813,-6784.0,26364.5,-25469.5,
17.029,0.6195784,1.1535823,9.904987,-0.00094617908,0.0063226336,7.142406e-05,-6784.0,25852.5,-25213.5,
17.145,0.5740886,1.1871011,9.840344,-0.0021452606,0.0021924674,-0.0005947314,-6784.0,26108.5,-24957.5,
17.261,0.5980306,1.124852,9.948083,-0.0030778944,0.0045906304,7.142406e-05,-7296.0,25852.5,-25213.5,
17.376,0.35142782,1.0099302,9.928929,-0.012537301,0.0067223272,0.0024695872,-6272.0,26620.5,-24445.5,
17.495,0.61479,1.26611,9.881045,-0.0045434236,0.005656477,-0.0049913632,-6784.0,26364.5,-25469.5,
17.615,0.6123958,1.2445619,9.847527,-0.0032111108,0.0033915452,-0.0001950385,-7296.0,26364.5,-23933.5,
17.731,0.6052132,1.1799185,9.876257,-0.0032111108,0.00179276984,-0.0015273513,-6784.0,26364.5,-24445.5,
17.849,0.6195784,1.2230141,9.890622,0.0003861338,0.0033915452,-0.0016605817,-7040.0,26364.5,-24445.5,
17.965,0.66027988,1.1703417,9.780489,-0.0014791042,0.0055232496,-0.0005947314,-7296.0,26364.5,-24701.5,
18.082,0.590848,1.1703417,9.904987,-0.00414373,-0.0014047772,-0.0036590504,-6272.0,27132.5,-24957.5,
18.203,0.69619288,1.1368229,9.91217,0.0011855215,0.0043241644,-6.180722e-05,-6528.0,26620.5,-24701.5,
18.320,0.6363378,1.1990721,9.885834,-0.00067971648,0.0043241644,-0.0011276575,-7040.0,26364.5,-25725.5,
18.437,0.6411262,1.1033042,9.881045,-0.00361080468,0.0020592324,-0.0019270442,-6784.0,27132.5,-24445.5,
18.554,0.6219726,1.1392171,9.888228,-0.0064086468,0.0019260049,0.0014037369,-6784.0,26108.5,-24957.5,
18.672,0.6123958,1.1607649,9.845133,-0.0005464852,0.0036580116,-0.003259357,-7040.0,26364.5,-24701.5,
18.793,0.626761,1.1344287,9.885834,-0.0040104984,0.0009933859,-0.0052578252,-6528.0,26364.5,-24701.5,
18.908,0.6291552,1.1080926,9.825979,-0.0016123354,0.00072692332,-0.001793813,-6528.0,26364.5,-24189.5,
19.024,0.6530973,1.1655533,9.916959,-0.0050763636,0.00179276984,-0.001793813,-6528.0,26620.5,-23933.5,
19.142,0.6243668,1.1703417,9.919353,-0.002811417,-0.0014047772,-0.0005947314,-6528.0,25852.5,-25469.5,
19.257,0.602819,1.1200636,9.797249,0.000785827636,0.0025921612,0.00047111884,-6784.0,26620.5,-24189.5,
19.380,0.66506824,1.1368229,9.916959,-0.00067971648,0.00072692332,-0.0009944253,-7040.0,26364.5,-24701.5,
19.497,0.6100016,1.1368229,9.849921,-0.0040104984,0.0029918552,-6.180722e-05,-7040.0,26620.5,-24189.5,
19.613,0.6507031,1.1799185,9.857103,-0.0013458729,0.006589096,-0.0019270442,-6784.0,26108.5,-24957.5,
19.730,0.61479,1.1607649,9.828373,0.0015852153,-0.000205695632,0.00193666116,-6528.0,26108.5,-25981.5,
19.848,0.6195784,1.1440055,9.938506,-0.0017455816,0.0013930798,0.0024695872,-6528.0,26108.5,-26237.5,
19.971,0.5980306,1.1272462,9.916959,-0.002411738,0.0029918552,-0.0025932006,-7040.0,26108.5,-25981.5,
20.086,0.61479,1.1487939,9.869075,-0.0010794252,0.00179276984,-0.0031261258,-6528.0,26108.5,-24701.5,
20.203,0.6411262,1.1368229,9.921747,-0.0049431176,-0.0003389269,-0.0020602756,-6272.0,26108.5,-24701.5,
20.319,0.6483089,1.1487939,9.893017,-0.004676655,0.00179276984,-0.0020602756,-7296.0,25852.5,-24445.5,
20.437,0.6339436,1.1799185,9.881045,-0.00081294776,0.0028586238,-0.0029928944,-7040.0,25596.5,-23421.5,
20.559,0.6435204,1.1775243,9.86668,-0.0040104984,-0.0022041648,-0.0029928944,-6528.0,26108.5,-24701.5,
20.674,0.5980306,1.1511881,9.873863,-0.0038772672,0.003791239,0.0027360496,-7296.0,26108.5,-25213.5,
20.791,0.6243668,1.1727359,9.895411,-0.0053428112,-0.0015380084,-0.0031261258,-6784.0,26108.5,-25213.5,
20.908,0.67703928,1.1416113,9.888228,-0.00414373,-0.0052684844,-0.0021935068,-6784.0,26364.5,-24445.5,
21.024,0.6195784,1.1033042,9.845133,-0.0058757364,0.0024589264,-0.0013941191,-6784.0,26620.5,-24701.5,
21.146,0.626761,1.1224578,9.859498,-0.0040104984,0.0068555624,0.0015369672,-6784.0,26364.5,-24957.5,
21.262,0.6100016,1.1559765,9.861892,-0.001878798,0.0019260049,0.0016701994,-6784.0,26364.5,-25213.5,
21.379,0.638732,1.1823127,9.794854,-0.005609274,0.00059369208,0.0035354364,-6784.0,27132.5,-23933.5,
21.494,0.5980306,1.1392171,9.86668,-0.0017455816,-0.0011383183,0.000337886632,-6528.0,26620.5,-25725.5,
21.612,0.5932422,1.1487939,9.938506,-0.004676655,-0.0003389269,-0.000727963636,-6784.0,27132.5,-25213.5,
21.734,0.638732,1.1847069,9.876257,-0.004676655,0.0011266135,-0.0045916692,-7040.0,26876.5,-26237.5,
21.850,0.6315494,1.1487939,9.849921,-0.005609274,0.0013930798,-0.000727963636,-6528.0,26876.5,-24701.5,
21.967,0.6530973,1.1727359,9.888228,-0.00520958,0.0019260049,-0.003925513,-6528.0,26620.5,-26493.5,
22.083,0.6219726,1.1487939,9.809219,-0.0029446482,0.005656477,-6.180722e-05,-7040.0,26620.5,-25213.5,
22.199,0.590848,1.0673912,9.91217,0.000119671224,0.0067223272,-0.0009944253,-6528.0,26108.5,-25981.5,
22.321,0.6483089,1.1487939,9.933718,-0.0053428112,0.00059369208,-0.0036590504,-7040.0,26108.5,-25981.5,
22.438,0.5836654,1.1655533,9.878652,-0.00347757336,0.004857093,-0.0011276575,-6528.0,26876.5,-25213.5,
22.555,0.61479,1.1033042,9.914564,-0.0038772672,-0.0014047772,-0.0021935068,-6528.0,26108.5,-25725.5,
22.671,0.6195784,1.1727359,9.864286,-0.006142199,0.0025921612,-0.0020602756,-6528.0,26620.5,-24957.5,
22.787,0.626761,1.1775243,9.835556,-0.0014791042,-0.0010050833,-0.0013941191,-7040.0,25596.5,-24189.5,
22.910,0.5980306,1.1176694,9.871469,-0.0032111108,0.005256787,0.000337886632,-7296.0,25852.5,-24189.5,
23.027,0.6219726,1.112881,9.869075,-0.0032111108,0.0027253888,-0.000727963636,-7040.0,25852.5,-25725.5,
23.144,0.6291552,1.1463997,9.878652,-0.0038772672,-0.000871852064,-0.0003282698,-7040.0,26364.5,-24957.5,
23.261,0.6435204,1.1823127,9.816402,-0.00081294776,0.0023256988,-0.0003282698,-7040.0,25852.5,-26237.5,
23.377,0.6315494,1.1583707,9.916959,-0.0020120292,-0.0006053895,-0.0037922818,-6528.0,25596.5,-25981.5,
23.501,0.626761,1.1631591,9.914564,-0.005609274,0.0012598485,-0.0019270442,-7040.0,26620.5,-26237.5,
23.616,0.67943348,1.1703417,9.88344,-0.0040104984,0.0013930798,-0.0015273513,-7040.0,26108.5,-25725.5,
23.733,0.6076074,1.1727359,9.897805,0.0005193651,0.00179276984,-0.0049913632,-7040.0,26364.5,-24957.5,
23.850,0.6411262,1.1823127,9.823585,-0.004276961,0.00738848368,-0.0048581316,-7040.0,25340.5,-25213.5,
23.967,0.6219726,1.1751301,9.897805,-0.0060089676,0.004857093,-0.0053910568,-6272.0,25596.5,-25469.5,
24.089,0.6195784,1.1487939,9.900199,-0.00414373,0.0029918552,0.00020465534,-7040.0,25340.5,-24957.5,
24.205,0.6339436,1.1679475,9.847527,-0.0054760424,0.0031250828,-0.001793813,-6528.0,25596.5,-24701.5,
24.321,0.6483089,1.1487939,9.85471,-0.007474512,-0.0015380084,-0.002726432,-6528.0,25852.5,-24445.5,
24.435,0.6578857,1.1559765,9.900199,-0.0026781856,0.006589096,-0.0031261258,-6784.0,26108.5,-25725.5,
24.551,0.6195784,1.1440055,9.864286,-0.0017455816,0.0009933859,-0.0035258192,-7296.0,26108.5,-25469.5,
24.672,0.626761,1.1176694,9.931324,-0.008673593,-0.0011383183,-0.0015273513,-7040.0,26620.5,-24957.5,
24.788,0.6171842,1.1392171,9.907382,-0.0040104984,-0.0028703212,-0.0001950385,-7296.0,25596.5,-25469.5,
24.904,0.61479,1.1320345,9.873863,0.00065259636,0.0036580116,-0.0008611949,-7040.0,25596.5,-24957.5,
25.020,0.5980306,1.1296404,9.926536,-0.00774095936,0.003924474,0.00087081176,-6528.0,26108.5,-24957.5,
25.136,0.626761,1.1871011,9.88344,0.0003861338,0.000460457068,0.0016701994,-7296.0,25596.5,-25213.5,
25.258,0.6100016,1.124852,9.897805,0.0010522902,0.0027253888,0.0026028176,-6784.0,25596.5,-24189.5,
25.374,0.6195784,1.1583707,9.814008,0.001451984,0.0019260049,0.00193666116,-7040.0,25340.5,-25213.5,
25.492,0.5716944,1.1296404,9.940901,-0.002411738,0.000460457068,0.0012705056,-7040.0,26108.5,-25213.5,
25.609,0.5884538,1.1224578,9.828373,-0.00094617908,0.0036580116,-0.0008611949,-7040.0,25596.5,-26237.5,
25.725,0.6052132,1.1296404,9.876257,-0.0005464852,0.0012598485,-0.0043252064,-6272.0,26620.5,-25213.5,
25.847,0.6339436,1.1823127,9.900199,-0.0004132688,0.0028586238,-0.0005947314,-6784.0,25596.5,-25469.5,
25.962,0.6171842,1.1607649,9.890622,-0.0038772672,0.003791239,-0.0009944253,-6784.0,24828.5,-24701.5,
26.078,0.6123958,1.1392171,9.830768,-0.0038772672,-0.0019377023,-0.00339258784,-7040.0,25596.5,-25469.5,
26.197,0.602819,1.1320345,9.825979,-0.0030778944,0.0024589264,0.0018034298,-7296.0,25596.5,-23933.5,
26.314,0.626761,1.124852,9.825979,-0.004676655,0.0003272295,0.00286928,-7296.0,25084.5,-25469.5,
26.432,0.638732,1.1679475,9.873863,-0.004809886,0.0023256988,-0.0025932006,-6528.0,25084.5,-25213.5,
26.548,0.6100016,1.1392171,9.900199,-0.0038772672,0.0049903208,-6.180722e-05,-7552.0,25084.5,-25213.5,
26.664,0.67225084,1.1487939,9.809219,-0.0049431176,0.0021924674,-0.002726432,-7040.0,25852.5,-25213.5,
26.781,0.58605964,1.1942837,10.010332,-0.0013458729,-0.0024706236,0.00047111884,-7552.0,25340.5,-24445.5,
26.899,0.6076074,1.1799185,9.83795,0.0003861338,0.0032583176,-0.0049913632,-7040.0,25596.5,-25213.5,
27.020,0.6291552,1.1847069,9.842738,-0.0030778944,0.0031250828,-0.0040587444,-7040.0,25852.5,-24957.5,
27.137,0.6004248,1.124852,9.869075,-0.0017455816,0.0003272295,0.00087081176,-6272.0,26108.5,-24701.5,
27.258,0.61479,1.1272462,9.830768,0.0019849092,-0.0004721582,0.001004043,-7040.0,26620.5,-24445.5,
27.373,0.6339436,1.1511881,9.85471,-0.0038772672,6.0766936e-05,-0.0049913632,-6272.0,26108.5,-25469.5,
27.489,0.6507031,1.1631591,9.893017,-0.0021452606,-0.0020709336,0.0018034298,-6784.0,26364.5,-25469.5,
27.612,0.67703928,1.1631591,9.893017,-0.006541893,0.0016595423,-0.000727963636,-6528.0,25596.5,-25725.5,
27.730,0.6554915,1.2158315,9.873863,-0.006541893,0.000460457068,-0.000727963636,-6016.0,26108.5,-25213.5,
27.849,0.6100016,1.1559765,9.873863,-0.0054760424,0.0032583176,-0.002326738,-6784.0,26364.5,-26237.5,
27.965,0.6123958,1.1033042,9.890622,-0.0016123354,0.001526311,-0.0025932006,-6784.0,25596.5,-25725.5,
28.081,0.6459147,1.1823127,9.881045,-0.00933975,0.0032583176,0.00020465534,-7040.0,26108.5,-25981.5,
28.202,0.5884538,1.1416113,9.940901,0.0011855215,-0.0016712397,-0.0008611949,-6528.0,26364.5,-24701.5,
28.319,0.6219726,1.1535823,9.873863,-1.3560057e-05,-0.000738620736,0.00020465534,-7296.0,25596.5,-25469.5,
28.437,0.6243668,1.124852,9.864286,-0.0044102072,-0.0003389269,-0.00685660036,-7040.0,25852.5,-25213.5,
28.553,0.6004248,1.1368229,9.897805,-0.004676655,0.000460457068,0.00047111884,-6528.0,26364.5,-25213.5,
28.670,0.5836654,1.1033042,9.878652,-0.0025449544,-0.0010050833,0.0024695872,-7040.0,26364.5,-26237.5,
28.793,0.61479,1.1559765,9.864286,-0.0060089676,-7.246435e-05,-0.0045916692,-6784.0,26876.5,-25213.5,
28.908,0.6363378,1.1583707,9.861892,-0.0012126416,0.0016595423,-0.0013941191,-6784.0,26108.5,-24957.5,
29.025,0.6339436,1.1655533,9.897805,0.0019849092,0.0025921612,0.004601286,-6784.0,25852.5,-25213.5,
29.141,0.590848,1.1368229,9.943295,-0.0032111108,0.001526311,-0.002726432,-6528.0,26108.5,-25469.5,
29.256,0.5836654,1.1152752,9.845133,-0.006675124,-0.0023373962,-0.0040587444,-6528.0,26108.5,-25469.5,
29.377,0.6554915,1.1966779,9.852315,-0.00014679134,-0.0022041648,0.00020465534,-7296.0,25852.5,-24445.5,
29.494,0.5956364,1.1679475,9.876257,-0.0020120292,0.0040577016,-0.0013941191,-6272.0,25852.5,-25469.5,
29.611,0.6219726,1.1847069,9.811614,-0.0062754304,0.003924474,0.00193666116,-6784.0,26108.5,-24701.5,
29.728,0.626761,1.1392171,9.933718,-0.0054760424,0.0009933859,0.002336355,-6784.0,25852.5,-24189.5,
29.843,0.5980306,1.1368229,9.852315,-0.006541893,-0.00180447468,-0.0003282698,-6528.0,26364.5,-24701.5,
29.965,0.6243668,1.1368229,9.840344,-0.004276961,0.00179276984,-0.0005947314,-6784.0,26364.5,-24445.5,
30.081,0.602819,1.1607649,9.904987,-0.0029446482,0.0045906304,0.0006043492,-6784.0,25852.5,-24957.5,
30.197,0.5956364,1.1942837,9.828373,-0.0053428112,0.0008601546,-0.00339258784,-7296.0,26620.5,-24957.5,
30.314,0.6411262,1.1272462,9.825979,-0.0029446482,0.0053900144,-0.00046150108,-7040.0,25852.5,-24445.5,
30.431,0.61479,1.1152752,9.88344,-0.004809886,0.0011266135,-0.0028596632,-6528.0,26108.5,-24701.5,
30.551,0.5956364,1.0817564,9.904987,-0.0014791042,0.0023256988,-0.0028596632,-6528.0,25852.5,-25469.5,
30.667,0.6411262,1.1463997,9.921747,-0.0017455816,0.0029918552,-0.0015273513,-6784.0,25852.5,-24957.5,
30.784,0.6507031,1.1440055,9.85471,-0.0060089676,0.0035247804,7.142406e-05,-6016.0,26364.5,-25725.5,
30.901,0.6363378,1.1799185,9.885834,-0.005609274,-0.0016712397,0.0035354364,-6528.0,25340.5,-25981.5,
31.017,0.5932422,1.1823127,9.797249,-0.0037440508,0.0043241644,-0.0043252064,-6784.0,26108.5,-25725.5,
31.140,0.66746248,1.1176694,9.799643,-0.002811417,0.005123552,0.0018034298,-6272.0,26364.5,-25469.5,
31.256,0.6052132,1.1583707,9.938506,-0.006541893,-0.0035364776,0.0024695872,-6784.0,26108.5,-24701.5,
31.372,0.6459147,1.1535823,9.816402,-0.010272369,0.0019260049,-0.002726432,-7296.0,25852.5,-25981.5,
31.489,0.6195784,1.1775243,9.823585,-0.005609274,0.0043241644,-0.0028596632,-6784.0,26364.5,-24189.5,
31.604,0.6195784,1.1942837,9.830768,-0.0013458729,0.0045906304,-0.003925513,-6784.0,26108.5,-25469.5,
31.726,0.5980306,1.1871011,9.871469,-0.005609274,0.0020592324,-0.000727963636,-6528.0,26108.5,-25469.5,
31.843,0.66027988,1.2158315,9.849921,-0.002811417,0.0041909368,-0.0008611949,-7040.0,25596.5,-25213.5,
31.960,0.554935,1.1200636,9.943295,-0.0060089676,0.00179276984,-0.0015273513,-6528.0,25340.5,-25725.5,
32.077,0.5597234,1.1056984,9.890622,-0.0064086468,0.004857093,7.142406e-05,-6272.0,25340.5,-25213.5,
32.191,0.5716944,1.1344287,9.852315,-0.0068083555,0.0077881776,-0.0035258192,-7040.0,25340.5,-25213.5,
32.315,0.5932422,1.1224578,9.802037,-0.008007437,0.003924474,-0.0028596632,-6784.0,25084.5,-24701.5,
32.430,0.5980306,1.0841506,9.835556,-0.0017455816,0.006589096,0.00020465534,-6784.0,25340.5,-25469.5,
32.545,0.6171842,1.007536,9.928929,-0.0068083555,0.0023256988,-6.180722e-05,-6528.0,25084.5,-24957.5,
32.662,0.67703928,1.0626028,9.919353,-0.00694158636,-0.000205695632,-0.002326738,-6784.0,25340.5,-24957.5,
32.781,0.66267408,1.1559765,9.864286,-0.008940056,0.0024589264,-0.0019270442,-6784.0,25596.5,-25213.5,
32.903,0.6052132,1.1799185,9.86668,-0.0025449544,-0.0006053895,-0.0036590504,-6272.0,25596.5,-24701.5,
33.019,0.6363378,1.2086489,9.830768,-0.0058757364,-0.0004721582,-0.005923982,-6528.0,25340.5,-25469.5,
33.134,0.6219726,1.1631591,9.881045,-0.0029446482,0.0031250828,-0.0011276575,-6528.0,24828.5,-23933.5,
33.252,0.6195784,1.1033042,9.869075,-0.0029446482,0.0019260049,-0.0005947314,-6528.0,25340.5,-24957.5,
33.369,0.66267408,1.124852,9.890622,-0.00720804936,0.0045906304,-0.0012608878,-7040.0,25852.5,-26493.5,
33.492,0.6243668,1.1344287,9.902594,-0.004809886,-0.0010050833,-0.0005947314,-6272.0,25084.5,-25469.5,
33.608,0.5980306,1.10091,9.842738,-0.0049431176,-0.0015380084,-0.0036590504,-6784.0,25596.5,-24701.5,
33.723,0.626761,1.1416113,9.888228,-0.004676655,0.001526311,7.142406e-05,-6016.0,25852.5,-25981.5,
33.837,0.6123958,1.0961216,9.878652,-0.002811417,0.0032583176,0.0022031236,-7040.0,24828.5,-24957.5,
33.952,0.638732,1.1655533,9.849921,-0.004276961,0.0025921612,0.001004043,-6272.0,24828.5,-24957.5,
34.072,0.61479,1.1703417,9.885834,-0.003344342,0.0011266135,0.00020465534,-6528.0,25596.5,-25469.5,
34.188,0.6578857,1.1487939,9.864286,-0.00414373,0.0009933859,-0.0009944253,-6272.0,24828.5,-25213.5,
34.303,0.6291552,1.1727359,9.833161,-0.003344342,0.0040577016,0.0016701994,-6784.0,25340.5,-25469.5,
34.419,0.6195784,1.1368229,9.907382,-0.0014791042,0.00072692332,0.0018034298,-6784.0,24572.5,-25725.5,
34.536,0.6195784,1.1344287,9.873863,-0.0044102072,0.0023256988,-0.001793813,-6272.0,24828.5,-25213.5,
34.658,0.61479,1.0673912,9.864286,-0.00520958,0.0049903208,-0.0005947314,-5760.0,25596.5,-25981.5,
34.771,0.6195784,1.1487939,9.852315,-0.006142199,0.004857093,0.001004043,-6784.0,25596.5,-25725.5,
34.885,0.66267408,1.1344287,9.787672,-0.007874206,0.0008601546,-0.0008611949,-7040.0,25340.5,-25725.5,
35.001,0.5956364,1.1918895,9.900199,-0.001878798,0.0021924674,-0.0008611949,-7296.0,25340.5,-25725.5,
35.116,0.5932422,1.112881,9.888228,-0.0012126416,0.00019399822,-0.0013941191,-6784.0,24828.5,-24189.5,
35.238,0.578877,1.1272462,9.806826,-0.00347757336,0.0013930798,-0.0049913632,-6016.0,25340.5,-25213.5,
35.354,0.602819,1.1463997,9.869075,-0.0021452606,-0.0004721582,-0.0029928944,-6272.0,25084.5,-26237.5,
35.470,0.6195784,1.1894953,9.885834,-0.005609274,0.0043241644,-0.0024599694,-6272.0,25340.5,-25213.5,
35.586,0.5740886,1.1487939,9.914564,-0.0010794252,0.001526311,-0.0011276575,-6784.0,24572.5,-25981.5,
35.702,0.5932422,1.112881,9.782884,-0.0040104984,0.0049903208,-0.0005947314,-6528.0,25340.5,-24701.5,
35.823,0.6219726,1.0985158,9.895411,-0.0062754304,0.0076549464,-0.0020602756,-6528.0,25084.5,-25469.5,
35.940,0.6411262,1.1511881,9.893017,-0.00361080468,-0.000205695632,-0.001793813,-6272.0,24572.5,-25981.5,
36.058,0.6459147,1.1655533,9.825979,-0.011071742,0.0003272295,-0.0016605817,-6784.0,25084.5,-26237.5,
36.174,0.6363378,1.1703417,9.823585,-0.0025449544,0.00019399822,-0.0011276575,-6784.0,25084.5,-24957.5,
36.292,0.5956364,1.1200636,9.842738,-0.0040104984,-7.246435e-05,0.0027360496,-6272.0,25084.5,-25725.5,
36.414,0.5980306,1.1416113,9.799643,0.0038501472,0.0031250828,-0.0020602756,-6528.0,25084.5,-25725.5,
36.531,0.590848,1.1703417,9.857103,-0.005609274,0.00179276984,-0.0005947314,-6528.0,25084.5,-25725.5,
36.646,0.6435204,1.1631591,9.780489,-0.0032111108,-0.00180447468,0.0027360496,-6272.0,25084.5,-25469.5,
36.764,0.6171842,1.1583707,9.873863,-0.004676655,-0.0004721582,-0.0001950385,-6784.0,25084.5,-25981.5,
36.879,0.5980306,1.1416113,9.895411,-0.0060089676,0.0033915452,-0.0005947314,-5760.0,24828.5,-24957.5,
37.001,0.6339436,1.1440055,9.909776,-0.0038772672,-0.0023373962,-0.002726432,-6528.0,25852.5,-26749.5,
37.117,0.66985668,1.1727359,9.797249,-0.0037440508,-0.0012715459,-0.0029928944,-6016.0,26108.5,-25213.5,
37.235,0.6435204,1.1559765,9.876257,-0.00361080468,0.0043241644,0.001004043,-5504.0,25596.5,-25725.5,
37.352,0.6004248,1.1559765,9.952871,-0.006142199,0.0008601546,0.0014037369,-6528.0,25084.5,-25469.5,
37.468,0.6004248,1.1799185,9.816402,-0.0020120292,-0.0003389269,-0.0001950385,-6528.0,25084.5,-25981.5,
37.604,0.6435204,1.1942837,9.88344,-0.0044102072,0.0031250828,-0.002726432,-6528.0,26108.5,-25981.5,
37.719,0.5932422,1.1655533,9.890622,-0.00361080468,0.003924474,-0.0028596632,-6016.0,25596.5,-25469.5,
37.836,0.6171842,1.1703417,9.869075,-0.004676655,-0.0015380084,-0.0011276575,-5760.0,24828.5,-25213.5,
37.952,0.602819,1.1104868,9.938506,0.0005193651,-0.0032700152,-0.0009944253,-6272.0,24828.5,-24701.5,
38.066,0.6507031,1.1511881,9.847527,-0.0038772672,0.01218481,-0.0012608878,-6784.0,24572.5,-24701.5,
38.188,0.5932422,1.1392171,9.919353,-0.0040104984,0.003924474,0.00020465534,-6272.0,24572.5,-25981.5,
38.304,0.6459147,1.0626028,9.79246,0.0002528876,0.0044573956,-0.0001950385,-6784.0,25084.5,-25469.5,
38.419,0.6291552,1.1942837,9.744576,-0.0082739,0.0064558648,-0.0001950385,-7040.0,25340.5,-25725.5,
38.539,0.6530973,1.1200636,9.919353,-0.00361080468,0.0040577016,-0.0008611949,-7040.0,25084.5,-26237.5,
38.656,0.49029154,1.1463997,9.948083,-0.0004132688,-0.0015380084,-0.0072562936,-7296.0,24828.5,-26237.5,
38.780,0.566906,1.1535823,9.799643,-0.0022784918,0.003924474,-0.0003282698,-6272.0,24828.5,-24189.5,
38.895,0.5716944,0.40659144,10.570576,0.0808578,-0.07028533,0.023653354,-6784.0,25084.5,-24957.5,
39.010,0.8374508,0.43292764,10.216234,-0.020131468,0.022710078,-0.004191975,-6528.0,24060.5,-24701.5,
39.126,0.93082468,1.0937274,9.897805,-0.0017455816,-0.0010050833,0.0027360496,-6016.0,24316.5,-25469.5,
39.243,0.5621176,0.9093738,9.940901,-0.032122284,-7.246435e-05,-0.0012608878,-6272.0,24828.5,-23933.5,
39.364,0.602819,1.1320345,9.88344,-0.00720804936,0.004723858,-0.0016605817,-6528.0,24572.5,-25469.5,
39.480,0.6243668,1.2589274,9.852315,-0.0040104984,0.009919878,0.00286928,-5760.0,24316.5,-26749.5,
39.595,0.626761,1.1727359,9.940901,0.0027842968,-0.0014047772,-0.0008611949,-5504.0,24316.5,-24445.5,
39.710,0.6483089,1.1679475,9.91217,-0.0029446482,-7.246435e-05,0.00047111884,-6016.0,24060.5,-25981.5,
39.826,0.6578857,1.2014663,9.86668,-0.0064086468,0.0049903208,-0.0016605817,-5504.0,24060.5,-25213.5,
39.948,0.66985668,1.2206199,9.928929,-0.002811417,-0.0014047772,-0.000727963636,-6272.0,24060.5,-24445.5,
40.066,0.66506824,1.1942837,9.869075,-0.0044102072,0.0023256988,0.00020465534,-6016.0,24316.5,-25213.5,
40.184,0.6291552,1.2732926,9.828373,-0.0053428112,0.0035247804,-0.0015273513,-5760.0,24572.5,-25725.5,
40.302,0.638732,1.1272462,9.904987,0.001451984,0.004857093,-0.0015273513,-6016.0,24316.5,-25725.5,
40.416,0.66746248,1.2373793,9.785277,-0.0053428112,0.0053900144,-0.002326738,-6528.0,24316.5,-25469.5,
40.539,0.66506824,1.2182257,9.878652,-0.008407116,0.0031250828,7.142406e-05,-6272.0,25084.5,-26237.5,
40.655,0.6530973,1.0937274,9.969631,0.0043830724,0.0008601546,0.0022031236,-5504.0,24828.5,-25725.5,
40.771,0.6315494,1.2469564,9.842738,-0.003344342,0.0012598485,0.0018034298,-6528.0,24572.5,-24701.5,
40.887,0.67225084,1.1990721,9.835556,-0.0060089676,0.004723858,-0.0012608878,-6016.0,24828.5,-24701.5,
41.004,0.6339436,1.2062547,9.821191,-0.004676655,0.0019260049,-0.001793813,-6272.0,24572.5,-25469.5,
41.127,0.6219726,1.2349851,9.857103,-0.002411738,0.0020592324,-0.001793813,-6528.0,24572.5,-24957.5,
41.242,0.67703928,1.1679475,9.821191,-0.0029446482,0.003791239,0.0030025114,-6016.0,25340.5,-25725.5,
41.359,0.66027988,1.2086489,9.893017,-0.0038772672,0.0053900144,0.004201592,-6016.0,25084.5,-24701.5,
41.476,0.5956364,1.2110431,9.876257,-0.0030778944,-0.0014047772,-0.0019270442,-5504.0,24572.5,-24957.5,
41.593,0.67225084,1.2445619,9.904987,-0.0049431176,0.0036580116,0.00087081176,-6272.0,24316.5,-25213.5,
41.717,0.6315494,1.2325909,9.835556,-0.0057424904,0.0055232496,-0.0005947314,-6016.0,25084.5,-25725.5,
41.833,0.61479,1.1463997,9.88344,-0.004809886,-0.00380293668,-0.0012608878,-6272.0,25084.5,-24957.5,
41.948,0.6507031,1.1942837,9.83795,-0.0022784918,0.0021924674,-0.0020602756,-6272.0,24060.5,-25981.5,
42.065,0.66506824,1.2325909,9.864286,0.0021181404,0.001526311,0.00087081176,-6272.0,24828.5,-25725.5,
42.182,0.6578857,1.2062547,9.821191,-0.0062754304,-0.005668178,7.142406e-05,-5760.0,25084.5,-26493.5,
42.303,0.6459147,1.2134373,9.842738,-0.0044102072,0.0021924674,-0.0003282698,-6272.0,25340.5,-25469.5,
42.420,0.6554915,1.1703417,9.885834,-0.0014791042,0.00179276984,-0.0031261258,-5760.0,25596.5,-24957.5,
42.538,0.6459147,1.1296404,9.936112,-0.00520958,-0.0026038588,-0.0003282698,-5760.0,25084.5,-25469.5,
42.652,0.6411262,1.2158315,9.926536,-0.00014679134,0.0020592324,-0.003259357,-6016.0,24572.5,-25213.5,
42.768,0.67464504,1.2014663,9.931324,-0.00067971648,0.0011266135,-0.0048581316,-6784.0,24572.5,-24957.5,
42.891,0.6507031,1.2349851,9.840344,-0.00094617908,0.0033915452,0.002336355,-6528.0,24828.5,-25469.5,
43.007,0.67703928,1.1894953,9.881045,-0.0050763636,0.004723858,0.00087081176,-5760.0,25340.5,-25725.5,
43.124,0.67225084,1.1703417,9.809219,-0.0050763636,-7.246435e-05,-0.0021935068,-6016.0,24828.5,-25725.5,
43.241,0.5980306,1.2062547,9.878652,-0.0038772672,-0.000205695632,-0.0005947314,-6016.0,25084.5,-25725.5,
43.358,0.6411262,1.1727359,9.888228,-0.0040104984,0.00019399822,-0.0011276575,-6016.0,25340.5,-25725.5,
43.481,0.61479,1.1823127,9.907382,-0.00014679134,0.0035247804,-0.0011276575,-5760.0,24828.5,-25213.5,
43.599,0.6459147,1.1990721,9.86668,-0.0017455816,-0.0014047772,-0.0021935068,-6016.0,24828.5,-24701.5,
43.715,0.6363378,1.1847069,9.878652,-0.0026781856,0.0043241644,-0.001793813,-6016.0,25340.5,-26237.5,
43.831,0.69379864,1.1990721,9.904987,-0.0025449544,-0.000738620736,-0.0029928944,-6272.0,24572.5,-24957.5,
43.950,0.6219726,1.1727359,9.897805,-0.0058757364,-0.0034032464,0.0011372734,-6528.0,24572.5,-24701.5,
44.072,0.5573292,1.1966779,9.873863,-0.0020120292,0.0028586238,-0.004458438,-5760.0,24572.5,-24957.5,
44.188,0.6459147,1.2086489,9.921747,-0.00081294776,0.0035247804,-0.0005947314,-6528.0,24828.5,-26237.5,
44.306,0.6004248,1.2924461,9.758942,-0.008140668,0.0016595423,0.00020465534,-6016.0,25596.5,-25725.5,
44.422,0.6243668,1.2445619,9.852315,-0.0037440508,0.0053900144,-0.0015273513,-6528.0,24316.5,-26237.5,
44.539,0.6076074,1.2038605,9.878652,-0.00014679134,-0.0030035526,0.0027360496,-6272.0,24060.5,-25981.5,
44.663,0.6578857,1.2301967,9.825979,-0.0092065184,0.001526311,0.00073758052,-6272.0,24316.5,-26237.5,
44.779,0.71055808,1.2445619,9.840344,-0.0010794252,-0.000871852064,7.142406e-05,-6272.0,24572.5,-25981.5,
44.896,0.68182768,1.2421677,9.919353,-0.0038772672,0.0021924674,-0.000727963636,-5760.0,25340.5,-25469.5,
45.015,0.68901024,1.1823127,9.895411,-0.0021452606,0.0029918552,-0.0035258192,-5760.0,24316.5,-26493.5,
45.132,0.5884538,1.2421677,9.907382,-0.00347757336,0.0009933859,-0.0057907504,-6016.0,24572.5,-25213.5,
45.256,0.66985668,1.2014663,9.818796,-0.001878798,0.005123552,0.00087081176,-6272.0,24316.5,-25469.5,
45.371,0.69140448,1.1368229,9.940901,-0.003344342,0.0012598485,-0.0028596632,-6784.0,24316.5,-26237.5,
45.488,0.66027988,1.2182257,9.845133,-0.0016123354,-0.0003389269,0.00047111884,-5760.0,24572.5,-25725.5,
45.605,0.626761,1.1655533,9.88344,0.0002528876,0.000460457068,-0.0005947314,-6272.0,24572.5,-25981.5,
45.721,0.6530973,1.1727359,9.861892,-0.0029446482,0.0016595423,-0.0024599694,-6016.0,24316.5,-24701.5,
45.844,0.6123958,1.1775243,9.816402,-0.0021452606,0.0024589264,-0.0005947314,-6016.0,24316.5,-24445.5,
45.960,0.6483089,1.1775243,9.91217,-0.0017455816,-0.0023373962,-0.0028596632,-6272.0,25084.5,-25213.5,
46.076,0.66506824,1.1775243,9.849921,0.000785827636,-0.0006053895,-0.000727963636,-6272.0,24572.5,-26749.5,
46.195,0.5956364,1.1679475,9.739788,-0.0014791042,0.008454334,-0.0025932006,-6272.0,24316.5,-26237.5,
46.311,0.5621176,1.1559765,9.857103,-0.008673593,0.00725525236,0.00047111884,-6784.0,24828.5,-25213.5,
46.434,0.68422184,1.2182257,9.825979,-0.00361080468,0.0068555624,-0.004458438,-6016.0,24316.5,-26237.5,
46.552,0.6291552,0.9165564,9.794854,-0.0073412808,-0.0004721582,-0.005923982,-6016.0,24572.5,-25213.5,
46.666,0.67464504,1.2182257,9.833161,-0.0037440508,-0.0023373962,-0.00339258784,-6272.0,24828.5,-24957.5,
46.785,0.6459147,1.2278025,9.936112,0.000785827636,-7.246435e-05,-0.0016605817,-6016.0,25084.5,-25981.5,
46.903,0.5932422,1.1966779,9.936112,-0.0032111108,0.000460457068,0.004334824,-6272.0,24572.5,-26493.5,
47.025,0.6004248,1.2158315,9.842738,-1.3560057e-05,0.0115186536,-0.0005947314,-5760.0,25596.5,-26237.5,
47.143,0.6052132,1.2206199,9.825979,-0.008540362,-0.0022041648,0.00087081176,-6272.0,24316.5,-25981.5,
47.259,0.626761,1.2230141,9.861892,-0.007607743,0.0009933859,-0.0012608878,-6528.0,25340.5,-26749.5,
47.374,0.6411262,1.2254083,9.861892,-0.00361080468,-0.00180447468,-0.0029928944,-5760.0,24572.5,-26749.5,
47.493,0.590848,1.088939,9.873863,-0.0054760424,-0.0011383183,-0.0009944253,-6528.0,25084.5,-25981.5,
47.614,0.69140448,1.1823127,9.83795,-0.006142199,-0.0020709336,0.00047111884,-6272.0,24572.5,-26237.5,
47.730,0.6435204,1.1487939,9.849921,-0.0040104984,0.0003272295,-0.0008611949,-5504.0,24828.5,-27005.5,
47.846,0.6004248,1.0937274,9.88344,-0.003344342,0.0023256988,0.0011372734,-5760.0,25084.5,-25981.5,
47.961,0.71055808,1.2278025,9.88344,0.00065259636,0.005256787,-0.0043252064,-6016.0,25084.5,-26493.5,
48.077,0.6052132,1.2517448,9.881045,-0.007474512,0.00059369208,-0.000727963636,-6272.0,24828.5,-25981.5,
48.199,0.71055808,1.2230141,9.85471,-0.008140668,0.0029918552,0.0015369672,-6272.0,24828.5,-25981.5,
48.315,0.67464504,1.1847069,9.847527,-0.00014679134,0.0025921612,-0.001793813,-6272.0,25340.5,-25981.5,
48.432,0.6459147,1.1775243,9.914564,-0.004676655,6.0766936e-05,0.00020465534,-6016.0,25084.5,-25725.5,
48.548,0.6554915,1.2254083,9.859498,-0.00361080468,0.008720797,0.00047111884,-6272.0,25084.5,-25981.5,
48.665,0.6554915,1.2182257,9.83795,-0.002811417,-7.246435e-05,-0.0024599694,-6016.0,25596.5,-26749.5,
48.785,0.6411262,1.1272462,9.900199,-0.0016123354,0.0040577016,0.0015369672,-6272.0,25340.5,-25981.5,
48.901,0.66027988,1.1918895,9.916959,-0.0025449544,0.0019260049,-0.0020602756,-6528.0,25340.5,-25725.5,
49.021,0.6554915,1.2637158,9.785277,-0.004676655,0.0045906304,-0.0001950385,-6272.0,25084.5,-25981.5,
49.136,0.66985668,1.2086489,9.890622,-0.0005464852,-0.000738620736,-0.0012608878,-6784.0,25596.5,-25981.5,
49.253,0.67225084,1.1871011,9.818796,-0.0021452606,0.0016595423,-0.0005947314,-6016.0,25340.5,-25725.5,
49.376,0.6554915,1.1918895,9.845133,-0.007074803,0.0029918552,-0.004458438,-6016.0,25084.5,-27005.5,
49.491,0.6483089,1.1703417,9.816402,-0.010805294,0.001526311,-0.0035258192,-6016.0,25340.5,-26749.5,
49.607,0.70816384,1.2086489,9.914564,0.0019849092,-0.0058014056,0.0024695872,-6528.0,25596.5,-27005.5,
49.725,0.6052132,1.2206199,10.051034,-0.0060089676,-0.0060678684,-0.0016605817,-6016.0,26108.5,-27005.5,
49.848,0.6411262,1.2014663,9.806826,-0.004809886,0.003924474,-0.0016605817,-6016.0,25596.5,-25213.5,
49.969,0.6219726,1.1559765,9.888228,-0.0010794252,0.0020592324,-0.0003282698,-6016.0,24828.5,-26237.5,
50.085,0.6459147,1.1056984,9.849921,-0.0029446482,-0.0028703212,-0.0020602756,-6528.0,25596.5,-25469.5,
50.202,0.6004248,1.1751301,9.900199,-0.0073412808,0.0027253888,-6.180722e-05,-6016.0,25084.5,-26237.5,
50.318,0.69140448,1.4839821,9.864286,-0.007874206,0.008987259,-0.0040587444,-6016.0,25084.5,-24445.5,
50.434,0.6435204,1.1416113,9.828373,-0.007074803,0.0055232496,-0.0012608878,-6016.0,25084.5,-25981.5,
50.556,0.7584421,1.2852635,9.770912,-0.002811417,0.00805464,0.0014037369,-6528.0,25084.5,-25981.5,
50.671,0.6171842,1.1104868,9.936112,-0.007074803,6.0766936e-05,0.0020698932,-6016.0,25340.5,-26237.5,
50.787,0.5645118,1.1871011,9.873863,-0.00414373,0.007122021,-0.0021935068,-6272.0,24828.5,-26237.5,
50.902,0.6578857,1.2589274,9.847527,0.0002528876,-0.0015380084,0.0006043492,-5760.0,24828.5,-26749.5,
51.017,0.6554915,1.1775243,9.859498,-0.0020120292,-0.0004721582,-0.00339258784,-5760.0,25084.5,-26493.5,
51.140,0.67225084,1.1511881,9.869075,-0.00361080468,0.004857093,-0.0008611949,-6528.0,25596.5,-26493.5,
51.257,0.67943348,1.1799185,9.885834,-0.0016123354,0.0059229432,-0.0012608878,-5760.0,26108.5,-24957.5,
51.374,0.69619288,1.1942837,9.907382,-0.0062754304,0.0011266135,-0.0011276575,-5760.0,26108.5,-25213.5,
51.492,0.626761,1.1799185,9.885834,-0.0014791042,0.0020592324,-0.00339258784,-6016.0,25340.5,-26749.5,
51.610,0.66985668,1.2038605,9.91217,-0.0013458729,0.0008601546,-0.0012608878,-6016.0,25084.5,-25725.5,
51.731,0.638732,1.1392171,9.821191,-0.0037440508,0.0032583176,-0.0016605817,-6528.0,25596.5,-27005.5,
51.848,0.7440769,1.2182257,9.849921,-0.0068083555,0.000460457068,-0.0020602756,-6016.0,25596.5,-26237.5,
51.967,0.66027988,1.2158315,9.797249,-0.0014791042,0.003791239,-0.0028596632,-6016.0,25596.5,-25981.5,
52.084,0.6339436,1.1631591,9.840344,-0.00694158636,-0.0015380084,-0.00339258784,-5760.0,25084.5,-25725.5,
52.203,0.66267408,1.2254083,9.847527,-0.002811417,0.004723858,-0.00046150108,-6016.0,25084.5,-25725.5,
52.325,0.6315494,1.2134373,9.895411,-0.002411738,0.0041909368,-0.0045916692,-6016.0,25596.5,-25469.5,
52.440,0.6435204,1.1559765,9.895411,-0.002411738,0.004723858,-0.0003282698,-6784.0,25084.5,-25469.5,
52.555,0.6459147,1.2086489,9.857103,-0.0030778944,6.0766936e-05,-0.0009944253,-6528.0,25596.5,-25469.5,
52.672,0.68422184,1.1799185,9.802037,-0.0021452606,0.0036580116,-0.001793813,-5760.0,25340.5,-26493.5,
52.788,0.6363378,1.1655533,9.873863,0.001451984,-0.0020709336,-0.0020602756,-6272.0,25084.5,-24957.5,
52.909,0.6483089,1.1942837,9.88344,-0.0045434236,0.00059369208,-0.0016605817,-6272.0,24828.5,-25213.5,
53.025,0.66985668,1.2206199,9.871469,0.0011855215,0.0036580116,-0.003259357,-6016.0,25340.5,-25981.5,
53.142,0.6459147,1.2038605,9.859498,-0.007474512,-0.0003389269,-0.00339258784,-6272.0,25084.5,-25469.5,
53.259,0.6507031,1.2397735,9.928929,-0.0064086468,0.0011266135,-0.0015273513,-6016.0,25596.5,-25469.5,
53.376,0.6171842,1.2397735,9.76373,-0.002411738,0.0023256988,0.00193666116,-6272.0,25596.5,-25725.5,
53.498,0.6171842,1.1823127,9.857103,-0.008007437,0.004723858,-0.0012608878,-6016.0,25084.5,-25981.5,
53.614,0.6507031,1.2230141,9.861892,-0.003344342,0.004857093,-0.0015273513,-6272.0,25340.5,-25725.5,
53.730,0.6315494,1.1847069,9.852315,-0.002411738,0.0013930798,7.142406e-05,-5760.0,25596.5,-26493.5,
53.845,0.6076074,1.2278025,9.842738,-0.0082739,-0.000205695632,0.0024695872,-6016.0,25596.5,-26493.5,
53.961,0.66746248,1.1894953,9.825979,0.0025178344,0.0027253888,0.0014037369,-6272.0,25852.5,-25725.5,
54.085,0.6243668,1.1775243,9.828373,-0.003344342,0.0028586238,-0.0043252064,-6528.0,25340.5,-25981.5,
54.201,0.6459147,1.2182257,9.823585,-0.00520958,0.0029918552,-0.0001950385,-6272.0,25852.5,-25981.5,
54.316,0.58605964,1.1894953,9.995967,-0.0030778944,-0.0006053895,-0.0021935068,-6528.0,25596.5,-25469.5,
54.433,0.6578857,1.2110431,9.873863,-0.0037440508,0.0053900144,0.00286928,-6272.0,25596.5,-25981.5,
54.549,0.68661608,1.1751301,9.871469,-0.0057424904,0.0024589264,0.0063332924,-5504.0,25084.5,-25469.5,
54.672,0.6483089,1.2110431,9.842738,-0.0014791042,0.0035247804,0.0030025114,-6272.0,25852.5,-26749.5,
54.791,0.6578857,1.1631591,9.881045,-0.00520958,0.0025921612,0.00020465534,-6016.0,25596.5,-24957.5,
54.907,0.6219726,1.2445619,9.816402,-0.007074803,0.0043241644,0.00193666116,-6528.0,25340.5,-25981.5,
55.024,0.6530973,1.1847069,9.835556,-0.006541893,0.0053900144,-0.0011276575,-7040.0,25084.5,-24701.5,
55.141,0.6339436,1.2397735,9.806826,-0.004276961,0.003791239,0.0016701994,-6272.0,25084.5,-25213.5,
55.262,0.67943348,1.2900519,9.794854,-0.0030778944,0.00019399822,-0.0024599694,-4992.0,25084.5,-25981.5,
55.380,0.6219726,1.2158315,9.909776,-0.008407116,0.0003272295,-0.0011276575,-6528.0,24828.5,-24701.5,
55.495,0.69140448,1.2182257,9.864286,-0.004809886,-0.0011383183,0.0024695872,-6016.0,24828.5,-26237.5,
55.612,0.66746248,1.1918895,9.948083,-0.004809886,-7.246435e-05,0.0012705056,-6016.0,25340.5,-24957.5,
55.728,0.61479,1.2206199,9.864286,-1.3560057e-05,0.004723858,-0.0020602756,-6016.0,24828.5,-26493.5,
55.849,0.6459147,1.1559765,9.835556,-0.007474512,-0.0004721582,-0.0009944253,-6272.0,25084.5,-25725.5,
55.964,0.6459147,1.1727359,9.861892,-0.0032111108,0.0025921612,0.00047111884,-6016.0,25340.5,-24445.5,
56.081,0.67703928,1.1823127,9.962448,-0.005609274,-0.0030035526,-0.0036590504,-5760.0,25084.5,-24701.5,
56.198,0.638732,1.2086489,9.888228,-0.0017455816,0.0019260049,0.00020465534,-6016.0,25596.5,-25725.5,
56.316,0.6435204,1.1679475,9.876257,0.00065259636,0.006589096,-0.0029928944,-6016.0,25084.5,-24957.5,
56.438,0.5932422,1.2206199,9.811614,-0.0058757364,0.000460457068,-0.0005947314,-6528.0,24316.5,-25213.5,
56.555,0.6435204,1.2230141,9.861892,-0.004809886,-0.00273709,-0.0003282698,-6528.0,24572.5,-25213.5,
56.669,0.6554915,1.2086489,9.928929,-0.0054760424,0.004723858,-0.0035258192,-6016.0,25084.5,-25213.5,
56.785,0.66267408,1.1918895,9.864286,-0.0032111108,-0.0006053895,-0.0012608878,-6528.0,24828.5,-25469.5,
56.902,0.6578857,1.2301967,9.852315,-0.00414373,6.0766936e-05,-0.0045916692,-6784.0,25084.5,-25725.5,
57.024,0.6219726,1.1847069,9.83795,-0.001878798,6.0766936e-05,-0.0029928944,-6272.0,24572.5,-25725.5,
57.139,0.6363378,1.1847069,9.823585,-0.0030778944,-0.0003389269,0.00047111884,-6272.0,24828.5,-24957.5,
57.256,0.638732,1.2110431,9.830768,-0.0040104984,-0.0015380084,0.0026028176,-6016.0,24828.5,-25981.5,
57.371,0.6554915,1.1918895,9.85471,-0.002811417,0.00725525236,0.00073758052,-6528.0,24316.5,-24701.5,
57.487,0.6483089,1.1368229,9.91217,-0.0045434236,0.0021924674,-0.0019270442,-6528.0,24828.5,-24445.5,
57.610,0.6507031,1.1871011,9.88344,-0.0013458729,0.0076549464,-0.002326738,-6528.0,25340.5,-25469.5,
57.725,0.66506824,1.2134373,9.902594,-0.0037440508,0.0028586238,0.0011372734,-6528.0,24828.5,-25981.5,
57.843,0.66746248,1.1990721,9.904987,-0.0040104984,-0.0003389269,-0.0011276575,-6272.0,24572.5,-25213.5,
57.960,0.67225084,1.1966779,9.828373,-0.0054760424,-0.0030035526,-6.180722e-05,-6272.0,25084.5,-24957.5,
58.077,0.66985668,1.1871011,9.871469,-0.0032111108,0.0025921612,-0.0020602756,-5504.0,24828.5,-25725.5,
58.200,0.6483089,1.1607649,9.919353,-0.005609274,0.001526311,0.00047111884,-6784.0,24572.5,-24445.5,
58.315,0.6076074,1.2062547,9.888228,-0.0029446482,-0.000205695632,0.0027360496,-6784.0,24828.5,-25213.5,
58.433,0.6578857,1.1871011,9.869075,-0.00094617908,-0.0028703212,-0.00046150108,-6016.0,24828.5,-24957.5,
58.550,0.602819,1.2038605,9.888228,0.000119671224,0.00019399822,0.0034022052,-6528.0,25340.5,-25469.5,
58.667,0.6435204,1.1775243,9.83795,-0.002411738,-7.246435e-05,0.0054006736,-6784.0,25084.5,-24701.5,
58.788,0.7249233,1.2397735,9.739788,-0.0010794252,0.008454334,0.00047111884,-6272.0,24572.5,-24445.5,
58.904,0.23411196,0.9524694,10.587335,0.012376934,-0.0335135,0.0044680556,-6784.0,24828.5,-24957.5,
59.020,0.38973504,1.4025793,9.814008,-0.0032111108,0.004723858,0.00073758052,-6272.0,24828.5,-24701.5,
59.136,0.566906,1.1535823,9.857103,-0.00694158636,0.0043241644,0.000337886632,-6272.0,24572.5,-25469.5,
59.255,0.6123958,1.1368229,9.871469,-0.0022784918,0.0035247804,0.0035354364,-6528.0,24316.5,-24957.5,
59.379,0.67464504,1.1751301,9.909776,-0.0013458729,-0.004602328,-0.0029928944,-6784.0,25084.5,-25469.5,
59.496,0.6530973,1.0937274,9.825979,-0.0038772672,-0.0012715459,-0.0029928944,-6016.0,25084.5,-24445.5,
59.613,0.6578857,1.2062547,9.768518,-0.0040104984,0.0035247804,-0.0031261258,-6272.0,25084.5,-23165.5,
59.732,0.6195784,1.1487939,9.900199,-0.0020120292,-0.005401712,0.00047111884,-6528.0,24572.5,-24957.5,
59.853,0.66746248,1.1823127,9.895411,-0.0017455816,0.0031250828,-0.0016605817,-7040.0,24572.5,-25725.5,
59.970,0.6578857,1.1894953,9.871469,-0.0032111108,-0.0004721582,-0.00792245,-6272.0,24572.5,-24445.5,
60.085,0.6315494,1.2110431,9.840344,0.0005193651,-0.000871852064,-0.0029928944,-6784.0,24572.5,-25213.5,
60.202,0.66746248,1.1966779,9.924141,-0.00028002262,0.0024589264,-0.0016605817,-6016.0,24316.5,-25725.5,
60.320,0.66267408,1.2685042,9.91217,-0.0045434236,0.0067223272,-0.0009944253,-6272.0,24316.5,-26237.5,
60.442,0.6578857,1.1559765,9.885834,-0.0045434236,-7.246435e-05,0.0022031236,-6784.0,24316.5,-26237.5,
60.559,0.58605964,1.1894953,9.938506,-0.0032111108,0.0011266135,-0.002326738,-6528.0,24316.5,-26749.5,
60.676,0.6195784,1.2086489,9.825979,-0.00720804936,-0.0028703212,-0.0028596632,-6528.0,24828.5,-26493.5,
60.793,0.626761,1.2230141,9.916959,-0.002811417,-0.0026038588,0.000337886632,-6272.0,24828.5,-26493.5,
60.910,0.68901024,1.2517448,9.864286,-0.00094617908,0.0024589264,0.000337886632,-6272.0,25084.5,-25725.5,
61.034,0.67703928,1.1942837,9.873863,-0.004276961,-0.00180447468,-0.0011276575,-6528.0,25596.5,-25981.5,
61.158,0.61479,1.3092055,9.871469,-0.009872675,0.00072692332,-0.0036590504,-6528.0,24828.5,-24957.5,
61.273,0.626761,1.1775243,9.938506,0.0010522902,0.0033915452,0.005134211,-6272.0,24572.5,-25469.5,
61.389,0.6339436,1.2493506,9.964843,-0.007074803,0.0013930798,-0.0015273513,-6272.0,24828.5,-25981.5,
61.505,0.68661608,1.2014663,9.861892,-0.00414373,0.004723858,-6.180722e-05,-6272.0,24316.5,-25469.5,
61.626,0.66027988,1.1942837,9.873863,-0.008007437,0.0031250828,0.0020698932,-6272.0,24572.5,-25213.5,
61.743,0.7153465,1.2685042,9.888228,-0.008540362,0.005656477,-0.0020602756,-6272.0,24316.5,-25469.5,
61.858,0.6483089,1.1511881,9.847527,0.0011855215,0.0057897084,0.0006043492,-6272.0,24316.5,-24957.5,
61.974,0.6435204,1.1966779,9.91217,0.0002528876,0.005256787,-0.0025932006,-6528.0,24316.5,-25469.5,
62.089,0.7392885,1.2158315,9.859498,-0.001878798,0.00019399822,-0.002726432,-5760.0,24060.5,-25213.5,
62.210,0.68901024,1.1463997,9.878652,-0.0058757364,-0.0003389269,-0.002726432,-6016.0,24316.5,-23933.5,
62.326,0.67225084,1.1535823,9.869075,-0.008806825,0.00059369208,-0.00046150108,-6016.0,24828.5,-24957.5,
62.443,0.68422184,1.1535823,9.907382,-0.0032111108,0.000460457068,-0.0016605817,-5760.0,24316.5,-24189.5,
62.562,0.6315494,1.1631591,9.83795,-0.00720804936,0.0028586238,-0.005124594,-6272.0,23292.5,-25469.5,
62.678,0.6171842,1.1871011,9.85471,-0.0037440508,0.0012598485,7.142406e-05,-6016.0,24828.5,-25469.5,
62.800,0.6123958,1.2565332,9.849921,-0.002411738,0.00179276984,-0.0001950385,-6272.0,24572.5,-25469.5,
62.916,0.7560479,1.1966779,9.840344,0.001451984,0.0040577016,-0.0031261258,-6016.0,24828.5,-25981.5,
63.032,0.6195784,1.1368229,9.785277,-0.0064086468,0.0032583176,-0.0016605817,-5760.0,25084.5,-24957.5,
63.148,0.638732,1.2110431,9.893017,-0.008007437,-0.000871852064,-0.0016605817,-6528.0,24572.5,-25725.5,
63.265,0.68422184,1.1871011,9.852315,-0.0045434236,0.0044573956,-6.180722e-05,-6272.0,24060.5,-24957.5,
63.388,0.6123958,1.1847069,9.876257,-0.0053428112,0.0027253888,0.002336355,-6016.0,24316.5,-24957.5,
63.504,0.6076074,1.2014663,9.900199,-0.0037440508,0.0035247804,-0.0019270442,-6528.0,25084.5,-26237.5,
63.623,0.68901024,1.2613216,9.857103,-0.0057424904,0.0003272295,-0.001793813,-6272.0,24828.5,-26493.5,
63.739,0.6578857,1.2732926,9.840344,-0.0053428112,0.0027253888,-0.0003282698,-6272.0,24828.5,-25725.5,
63.855,0.6100016,1.2445619,9.86668,-0.00361080468,0.0040577016,-0.001793813,-6784.0,25084.5,-25981.5,
63.977,0.7153465,1.1152752,9.916959,0.0027842968,0.00179276984,-0.0001950385,-6528.0,24572.5,-26493.5,
64.094,0.6076074,1.2254083,9.864286,-0.0053428112,0.0020592324,0.00087081176,-6272.0,24572.5,-25725.5,
64.210,0.5764828,1.2637158,9.888228,-0.00414373,0.0020592324,0.00087081176,-6528.0,24828.5,-25213.5,
64.325,0.6459147,1.112881,9.814008,-0.0004132688,-0.0003389269,7.142406e-05,-6272.0,24828.5,-24701.5,
64.439,0.638732,1.1990721,9.821191,-0.002811417,0.0019260049,-0.0036590504,-6784.0,24316.5,-25725.5,
64.562,0.6578857,1.1918895,9.86668,-0.002811417,0.0023256988,-0.001793813,-6016.0,24828.5,-24957.5,
64.677,0.5262046,1.2278025,9.938506,0.0002528876,0.0019260049,-0.004458438,-6016.0,24060.5,-25213.5,
64.793,0.7273175,1.2014663,9.845133,-1.3560057e-05,0.005123552,-0.0052578252,-6528.0,24572.5,-25213.5,
64.909,0.6243668,1.1463997,9.869075,-0.0013458729,0.0012598485,-0.0001950385,-6272.0,25340.5,-24701.5,
65.025,0.66267408,1.1200636,9.859498,0.000785827636,-0.000205695632,-0.0019270442,-6528.0,24060.5,-24701.5,
65.151,0.6459147,1.1152752,9.847527,0.0022513718,0.006589096,0.004201592,-6272.0,24060.5,-25469.5,
65.266,0.5740886,1.0266896,9.833161,-0.0037440508,0.000460457068,0.001004043,-6528.0,23804.5,-25469.5,
65.383,0.69140448,1.0482376,9.859498,-0.0044102072,-0.0022041648,-0.0013941191,-6272.0,23036.5,-26237.5,
65.500,0.5884538,1.2230141,9.83795,-0.011338219,0.0021924674,0.0034022052,-5760.0,22524.5,-25725.5,
65.616,0.5932422,0.99795928,9.861892,-0.00414373,-0.000205695632,-0.0012608878,-4480.0,22524.5,-25725.5,
65.738,0.6171842,1.2349851,9.881045,-0.005609274,0.00179276984,-0.0012608878,-1664.0,24060.5,-24701.5,
65.855,0.5693002,1.1440055,9.849921,-0.008673593,0.0020592324,0.0016701994,-3200.0,26876.5,-24957.5,
65.971,0.68901024,1.1942837,9.888228,-0.00014679134,0.00019399822,-0.0019270442,-5504.0,27388.5,-25725.5,
66.089,0.66506824,1.2158315,9.797249,-0.00520958,0.003791239,-0.0012608878,-5760.0,23804.5,-26749.5,
66.205,0.6123958,1.1392171,9.907382,-0.0038772672,0.00738848368,-0.0029928944,-3712.0,22012.5,-25981.5,
66.328,0.6123958,1.2182257,9.833161,-0.0026781856,0.00179276984,-0.0013941191,-2176.0,23292.5,-24701.5,
66.447,0.66267408,1.2038605,9.845133,-0.00361080468,0.0023256988,-0.0031261258,-1664.0,24060.5,-24445.5,
66.565,0.6363378,1.2254083,9.873863,-0.00081294776,0.0012598485,-0.0005947314,-1408.0,25852.5,-24957.5,
66.682,0.67703928,1.1823127,9.811614,-0.0010794252,0.0003272295,-0.0021935068,-1920.0,26876.5,-24189.5,
66.799,0.6315494,1.1631591,9.869075,-0.0030778944,-0.0004721582,0.00087081176,-3200.0,27644.5,-24445.5,
66.921,0.69858708,1.2038605,9.902594,-0.008007437,0.0040577016,-0.00339258784,-2944.0,27132.5,-23933.5,
67.038,0.68182768,1.2637158,9.835556,-0.002411738,0.0013930798,-0.0008611949,-3200.0,27900.5,-23933.5,
67.154,0.6411262,1.1894953,9.885834,-0.00067971648,6.0766936e-05,0.00073758052,-3200.0,27644.5,-24189.5,
67.271,0.66985668,1.2254083,9.897805,-0.0016123354,-0.000738620736,0.0014037369,-3200.0,27388.5,-24445.5,
67.389,0.66506824,1.1751301,9.890622,-0.00520958,-7.246435e-05,-0.0024599694,-2944.0,27644.5,-24701.5,
67.511,0.6100016,1.1918895,9.816402,-0.0037440508,0.0009933859,-0.001793813,-3456.0,27900.5,-24189.5,
67.626,0.66267408,1.2230141,9.881045,-0.0029446482,0.0025921612,-0.000727963636,-2688.0,28156.5,-24701.5,
67.744,0.67464504,1.2876577,9.464455,-0.00067971648,0.01111896,-0.009254763,-3200.0,28668.5,-23677.5,
67.860,0.10482508,1.2397735,10.027092,-0.022662878,0.0003272295,-0.009787688,-2432.0,27900.5,-24445.5,
67.977,0.602819,1.2828693,9.806826,-0.001878798,0.0063226336,0.0014037369,-2944.0,27388.5,-23933.5,
68.098,0.6195784,1.1894953,9.85471,-0.008407116,0.004723858,0.0006043492,-3200.0,28156.5,-24445.5,
68.211,0.6243668,1.2086489,9.864286,-0.008007437,0.006056171,-0.0001950385,-3200.0,28156.5,-24189.5,
68.325,0.6243668,1.2038605,9.914564,-0.00347757336,-0.0004721582,-0.000727963636,-3200.0,28156.5,-23677.5,
68.442,0.66506824,1.1942837,9.790066,-0.00361080468,0.0021924674,-0.0012608878,-2944.0,27388.5,-24701.5,
68.560,0.6530973,1.1847069,9.811614,-0.0004132688,0.0057897084,-0.0043252064,-3712.0,27644.5,-24445.5,
68.682,0.6554915,1.2445619,9.833161,-0.009872675,0.0031250828,0.000337886632,-2944.0,27900.5,-23677.5,
68.800,0.638732,1.1942837,9.811614,-0.0012126416,-0.0006053895,-0.0020602756,-2944.0,27900.5,-24189.5,
68.915,0.66027988,1.2206199,9.91217,-0.00694158636,0.0020592324,-0.0045916692,-3712.0,27644.5,-23933.5,
69.033,0.638732,1.2325909,9.780489,-0.0062754304,0.0008601546,-0.0028596632,-3200.0,26876.5,-24445.5,
69.148,0.6315494,1.2134373,9.904987,-0.006541893,0.0029918552,0.0015369672,-3200.0,27132.5,-24189.5,
69.270,0.6554915,1.2086489,9.852315,-0.0038772672,-0.0019377023,0.0024695872,-2944.0,27644.5,-24701.5,
69.388,0.6411262,1.2325909,9.852315,-0.006675124,0.0025921612,-0.0001950385,-2944.0,27388.5,-24189.5,
69.504,0.66027988,1.2613216,9.869075,-0.002411738,-0.0016712397,-0.003925513,-2688.0,27900.5,-23933.5,
69.620,0.67464504,1.2086489,9.962448,-0.00414373,0.0003272295,-0.0013941191,-2688.0,27388.5,-24701.5,
69.736,0.7345001,1.3187823,9.802037,0.000919044,0.0033915452,-6.180722e-05,-3200.0,27132.5,-23933.5,
69.857,0.5285988,1.1296404,9.897805,-0.0045434236,-0.0011383183,0.003801899,-3456.0,27900.5,-24701.5,
69.973,0.7584421,1.3523011,9.773307,-0.005609274,0.0027253888,-0.0008611949,-2944.0,27644.5,-24189.5,
70.089,1.1774274,1.4648285,9.907382,0.0025178344,0.0016595423,-0.0040587444,-2432.0,27900.5,-23933.5,
70.207,0.7416827,1.26611,9.802037,-0.0050763636,0.009253722,0.000337886632,-1152.0,28412.5,-23165.5,
70.322,0.6483089,1.2565332,9.828373,-0.0017455816,0.0025921612,0.0015369672,384.0,29437.5,-22141.5,
70.444,0.68182768,1.26611,9.952871,-0.0045434236,0.0020592324,-0.0020602756,384.0,29693.5,-22653.5,
70.560,0.6339436,1.2230141,9.881045,-0.00081294776,0.0045906304,0.002336355,128.0,29437.5,-22397.5,
70.676,0.6483089,1.3068113,9.869075,-0.007074803,-0.0024706236,-0.0020602756,384.0,29437.5,-22141.5,
70.793,0.6483089,1.2613216,9.758942,-0.00028002262,0.0023256988,-0.0009944253,384.0,29181.5,-21885.5,
70.909,0.68901024,1.1894953,9.859498,-0.0029446482,0.0024589264,-0.001793813,384.0,29693.5,-23421.5,
71.032,0.68661608,1.2158315,9.861892,-0.008140668,0.0033915452,-0.0009944253,384.0,28413.5,-23933.5,
71.148,0.626761,1.1942837,9.840344,-0.002411738,-0.0015380084,-0.001793813,128.0,29181.5,-22653.5,
71.262,0.578877,1.1535823,9.950478,-0.00094617908,0.00059369208,0.0012705056,-128.0,28668.5,-22653.5,
71.379,0.6554915,1.0626028,9.85471,0.002384603,0.00072692332,-0.0036590504,-384.0,29180.5,-22397.5,
71.494,0.5812712,1.1535823,9.878652,0.000119671224,0.003924474,-0.0040587444,-1152.0,29436.5,-23677.5,
71.617,0.6171842,1.2469564,9.852315,-0.004276961,0.0016595423,-0.0001950385,-2432.0,29436.5,-23421.5,
71.733,0.67943348,1.2948403,9.924141,0.001451984,0.0028586238,-6.180722e-05,-2944.0,28412.5,-23677.5,
71.849,0.5980306,1.2086489,9.823585,-0.00067971648,0.003924474,-0.0021935068,-3456.0,26876.5,-24701.5,
71.964,0.66027988,1.2637158,9.845133,-0.0029446482,0.0020592324,-0.006190444,-3200.0,26108.5,-24701.5,
72.081,0.66985668,1.1799185,9.847527,-0.0053428112,0.0041909368,-0.0003282698,-2432.0,25084.5,-24701.5,
72.203,0.6219726,1.1918895,9.849921,-0.00347757336,0.0076549464,-0.0024599694,-2688.0,24316.5,-24701.5,
72.320,0.6411262,1.112881,9.919353,0.0013187528,0.0021924674,-0.00046150108,-1664.0,24572.5,-24445.5,
72.436,0.68661608,1.1799185,9.799643,-0.005609274,0.000460457068,0.0030025114,-1408.0,24316.5,-23677.5,
72.560,0.6171842,1.1751301,9.816402,-0.0026781856,-0.0014047772,0.001004043,-640.0,23804.5,-23677.5,
72.677,0.67464504,1.1918895,9.835556,-0.00067971648,0.006589096,0.00020465534,-384.0,23548.5,-24445.5,
72.800,0.66985668,1.1871011,9.797249,-0.0012126416,0.0021924674,-0.0008611949,-896.0,24572.5,-23677.5,
72.917,0.6530973,1.2134373,9.878652,-0.0026781856,0.0008601546,-0.0036590504,-896.0,24060.5,-23933.5,
73.033,0.626761,1.2325909,9.943295,-0.004676655,-0.0014047772,0.000337886632,-896.0,24060.5,-24445.5,
73.150,0.6315494,1.2206199,9.86668,-0.0012126416,0.0041909368,-0.0016605817,-896.0,23804.5,-23421.5,
73.266,0.66985668,1.2254083,9.859498,-0.0016123354,0.0032583176,-0.0012608878,-640.0,23548.5,-24189.5,
73.390,0.66746248,1.2038605,9.86668,-0.004809886,0.0036580116,-0.0021935068,-896.0,24316.5,-23933.5,
73.505,0.67943348,1.2517448,9.780489,-0.007474512,0.010319572,-0.0015273513,-640.0,24060.5,-24445.5,
73.622,0.68182768,1.2206199,9.897805,-0.0049431176,0.00179276984,-0.002326738,-896.0,24572.5,-23933.5,
73.740,0.81111452,1.3235707,9.694298,-0.00414373,0.00725525236,-0.004191975,-384.0,24060.5,-24957.5,
73.856,0.6219726,1.1799185,9.914564,-0.0044102072,0.0025921612,-6.180722e-05,-896.0,24316.5,-23677.5,
73.978,0.6554915,1.2565332,9.914564,-0.00774095936,-0.0026038588,0.0026028176,-896.0,23804.5,-23933.5,
74.095,0.66985668,1.1847069,9.981602,0.000119671224,0.0028586238,-0.0012608878,-384.0,23804.5,-24701.5,
74.214,0.69379864,1.124852,9.845133,-0.00414373,0.00805464,-0.0009944253,-384.0,24060.5,-24445.5,
74.328,0.6291552,1.1607649,9.88344,-0.004676655,-0.0015380084,-0.0008611949,-896.0,23804.5,-24957.5,
74.443,0.66746248,1.1703417,9.849921,-0.004276961,0.000460457068,-0.0005947314,-384.0,23292.5,-24701.5,
74.566,1.1199665,1.72340232,9.91217,-0.007074803,0.013517121,-0.0029928944,128.0,23549.5,-24957.5,
74.684,0.7225291,1.1535823,9.840344,-0.0057424904,0.00738848368,-0.0031261258,896.0,24061.5,-25213.5,
74.802,0.6339436,1.1535823,9.88344,0.000119671224,0.0064558648,0.00366866784,896.0,24573.5,-25213.5,
74.920,0.67464504,1.1727359,9.830768,-0.0017455816,0.0053900144,0.00087081176,896.0,24317.5,-25213.5,
75.038,0.66267408,1.2062547,9.893017,-0.00094617908,0.00019399822,0.0012705056,896.0,24317.5,-25469.5,
75.177,0.6507031,1.1751301,9.876257,-0.0049431176,0.0019260049,-0.0028596632,1408.0,24061.5,-24701.5,
75.295,0.6315494,1.1847069,9.85471,-0.0037440508,0.0033915452,-0.0020602756,896.0,23805.5,-25213.5,
75.411,0.6507031,1.2230141,9.943295,-0.010005906,0.005123552,-0.0015273513,1152.0,24061.5,-23165.5,
75.528,0.6459147,1.2278025,9.890622,-0.004809886,0.0057897084,-0.0012608878,896.0,24317.5,-22909.5,
75.644,0.6315494,1.1799185,9.811614,-0.0068083555,0.0028586238,-0.0013941191,896.0,24573.5,-25213.5,
75.768,0.6435204,1.2278025,9.840344,0.0002528876,0.006189406,-0.0005947314,1664.0,24573.5,-23165.5,
75.883,0.6123958,1.1799185,9.852315,-0.00094617908,0.003924474,-0.0005947314,896.0,25085.5,-22909.5,
75.998,0.5453582,1.1583707,9.770912,-0.001878798,0.008720797,0.003801899,1664.0,25085.5,-22397.5,
76.113,0.6554915,1.2110431,9.857103,-0.001878798,-0.0024706236,0.00020465534,1664.0,24829.5,-23165.5,
76.230,0.6411262,1.2445619,9.916959,-0.0038772672,0.003791239,-0.0012608878,1408.0,24829.5,-24701.5,
76.346,0.71055808,1.2732926,9.816402,-0.00414373,-0.0023373962,-0.0012608878,1408.0,24317.5,-23421.5,
76.468,0.6459147,1.254139,9.828373,-0.0058757364,-0.00180447468,0.001004043,1408.0,25085.5,-24445.5,
76.584,0.66985668,1.1894953,9.904987,-0.0017455816,-0.000205695632,-0.0003282698,1408.0,25085.5,-24957.5,
76.701,0.69379864,1.2158315,9.857103,-0.0017455816,-0.003669709,-0.0015273513,1664.0,24573.5,-24701.5,
76.818,0.6483089,1.1775243,9.878652,-0.0014791042,0.00179276984,-0.0043252064,1664.0,25341.5,-24701.5,
76.936,0.626761,1.2158315,9.840344,-0.00067971648,-7.246435e-05,7.142406e-05,1408.0,25597.5,-23933.5,
77.056,0.68182768,1.2134373,9.852315,-0.0045434236,-0.0004721582,0.004734517,1408.0,24829.5,-24701.5,
77.173,0.6100016,1.2278025,9.926536,-0.0054760424,-0.000205695632,-0.002726432,2432.0,25341.5,-24189.5,
77.289,0.7153465,1.2182257,9.876257,-0.0030778944,0.004723858,-0.00339258784,2176.0,25341.5,-23677.5,
77.406,0.6315494,1.26611,9.864286,-0.0013458729,0.0033915452,0.0024695872,1152.0,25341.5,-23933.5,
77.521,0.67464504,1.2637158,9.842738,0.0002528876,0.000460457068,0.0015369672,1152.0,26109.5,-24189.5,
77.645,0.69858708,1.1871011,9.835556,-0.00361080468,0.001526311,0.0016701994,1920.0,25853.5,-23933.5,
77.763,0.6578857,1.1703417,9.842738,-0.0017455816,0.005256787,-0.0019270442,1920.0,25085.5,-24445.5,
77.879,0.626761,1.2206199,9.857103,-0.003344342,-0.0019377023,-0.0031261258,1664.0,25597.5,-24189.5,
77.996,0.66027988,1.1727359,9.864286,-0.0004132688,-0.0014047772,0.0024695872,1920.0,25853.5,-23933.5,
78.113,0.6243668,1.1751301,9.847527,-0.00081294776,0.000460457068,-0.0019270442,1664.0,25853.5,-25469.5,
78.237,0.5597234,1.2685042,9.770912,-0.0049431176,0.0016595423,-0.0009944253,1152.0,25853.5,-24957.5,
78.353,0.6578857,1.2900519,9.88344,-0.002811417,-0.003669709,0.003268974,2176.0,25597.5,-24701.5,
78.467,0.6219726,1.2397735,9.842738,-0.0005464852,0.003791239,-0.0013941191,2176.0,26365.5,-23165.5,
78.582,0.67225084,1.1703417,9.881045,-0.0025449544,0.0019260049,0.0015369672,2176.0,26109.5,-24701.5,
78.701,0.6435204,1.1463997,9.888228,-0.003344342,0.0011266135,-0.0019270442,2688.0,26877.5,-22653.5,
78.823,0.6530973,1.1607649,9.833161,-0.0020120292,0.0032583176,-0.002726432,1664.0,26877.5,-24445.5,
78.939,0.69379864,1.2517448,9.893017,-0.0016123354,0.0035247804,-0.002726432,1408.0,26621.5,-23933.5,
79.057,0.68422184,1.1871011,9.79246,-0.0040104984,0.000460457068,-0.002326738,1920.0,28669.5,-24445.5,
79.174,0.602819,1.041055,9.780489,-0.0040104984,0.0040577016,0.00020465534,2432.0,28157.5,-24189.5,
79.289,0.69858708,1.26611,9.890622,-0.011204988,0.012584504,-0.0019270442,1664.0,28157.5,-24701.5,
79.411,0.590848,1.1871011,9.921747,0.004782766,-0.0003389269,-6.180722e-05,1920.0,28669.5,-25469.5,
79.525,0.6004248,1.1918895,9.88344,-0.0013458729,-0.000205695632,0.0012705056,1408.0,28669.5,-24189.5,
79.643,0.61479,1.1440055,9.881045,-0.0022784918,-0.0003389269,0.00073758052,1664.0,29437.5,-23421.5,
79.759,0.66027988,1.2254083,9.859498,-0.0053428112,0.004723858,-0.0020602756,1152.0,29949.5,-24189.5,
79.876,0.58605964,1.1703417,9.859498,-0.004676655,0.0036580116,-0.000727963636,640.0,29693.5,-24445.5,
79.999,0.5884538,1.1224578,9.833161,-0.00414373,0.0021924674,-0.002326738,-128.0,30204.5,-24445.5,
80.114,0.590848,1.1823127,9.861892,-0.003344342,0.0009933859,-0.0036590504,-384.0,29692.5,-23677.5,
80.229,0.5956364,1.1799185,9.881045,-0.0040104984,-0.0051352492,-0.002726432,-1152.0,30460.5,-23421.5,
80.344,0.66027988,1.1727359,9.873863,-0.00094617908,0.0003272295,0.00047111884,-1408.0,29692.5,-24189.5,
80.462,0.6123958,1.2349851,9.909776,-0.0049431176,0.000460457068,-0.002726432,-1664.0,29436.5,-23933.5,
80.584,0.70098132,1.1966779,9.943295,-0.00694158636,-0.0019377023,-0.00046150108,-2688.0,28924.5,-24957.5,
80.704,0.6554915,1.1823127,9.950478,-0.0020120292,0.00072692332,0.0015369672,-2944.0,27132.5,-25213.5,
80.821,0.6483089,1.2206199,9.833161,-0.004676655,0.0033915452,-0.0020602756,-2688.0,25340.5,-26749.5,
80.937,0.5621176,1.2206199,9.818796,-0.00347757336,0.001526311,-0.002726432,-1152.0,24316.5,-25981.5,
81.053,0.6100016,1.1990721,9.818796,-0.00014679134,0.0040577016,-0.0011276575,-640.0,24572.5,-24189.5,
81.176,0.6195784,1.2397735,9.857103,-0.0073412808,-0.0020709336,-0.0035258192,128.0,24573.5,-24445.5,
81.292,0.68661608,1.2325909,9.83795,-0.0073412808,0.004723858,-0.0005947314,1152.0,25597.5,-23165.5,
81.408,0.638732,1.2254083,9.904987,-0.00347757336,0.0021924674,-0.0005947314,1920.0,25853.5,-23933.5,
81.524,0.6411262,1.2325909,9.804431,-0.006541893,0.007921409,0.00087081176,2432.0,27133.5,-24957.5,
81.640,0.6483089,1.1440055,9.847527,-0.0064086468,0.0067223272,-0.0015273513,1664.0,29437.5,-24189.5,
81.763,0.6459147,1.1751301,9.85471,-0.0044102072,-0.0011383183,-0.0009944253,384.0,29949.5,-23421.5,
81.879,0.638732,1.2158315,9.897805,-0.0022784918,-0.0004721582,0.0014037369,-1408.0,30460.5,-23421.5,
81.995,0.67703928,1.2301967,9.897805,-0.004809886,0.0003272295,-0.0015273513,-2176.0,29692.5,-22141.5,
82.112,0.6219726,1.2182257,9.881045,-0.0014791042,0.004723858,0.0018034298,-2176.0,28668.5,-24189.5,
82.228,0.67225084,1.2134373,9.869075,-0.0053428112,0.00072692332,-0.0036590504,-2688.0,28924.5,-24189.5,
82.351,0.6530973,1.2182257,9.849921,-0.0005464852,0.0021924674,-0.0052578252,-2944.0,28412.5,-24189.5,
82.468,0.6339436,1.2685042,9.823585,0.0027842968,-0.0014047772,-6.180722e-05,-2944.0,27644.5,-24445.5,
82.583,0.6435204,1.2230141,9.873863,-0.007074803,0.003924474,-0.003925513,-3456.0,27644.5,-24957.5,
82.697,0.68182768,1.2254083,9.787672,-0.009606212,0.003924474,0.0054006736,-2688.0,27388.5,-24445.5,
82.813,0.6554915,1.1966779,9.888228,-0.001878798,0.0031250828,-0.0016605817,-2688.0,26620.5,-23933.5,
82.935,0.69858708,1.2421677,9.88344,-0.0037440508,0.0040577016,-0.000727963636,-2944.0,25596.5,-24701.5,
83.053,0.68901024,1.2469564,9.857103,-0.0037440508,0.0012598485,-6.180722e-05,-2432.0,26108.5,-24957.5,
83.170,0.6339436,1.1344287,9.895411,-0.0057424904,0.0011266135,-0.005524288,-1664.0,25084.5,-24445.5,
83.286,0.6483089,1.2086489,9.895411,0.0015852153,0.0016595423,-0.0024599694,-1664.0,25084.5,-24957.5,
83.404,0.61479,1.1463997,9.816402,-0.007607743,-0.000871852064,-0.0008611949,-384.0,24060.5,-23933.5,
83.526,0.5716944,0.79445216,10.029486,0.000119671224,-0.0023373962,0.0063332924,128.0,24061.5,-24701.5,
83.644,0.554935,1.2493506,9.842738,0.0021181404,-0.0034032464,-0.0019270442,-128.0,24572.5,-23933.5,
83.767,0.68422184,1.3259649,9.85471,-0.006142199,0.0032583176,0.00073758052,128.0,24061.5,-23933.5,
83.883,0.6483089,1.1392171,9.881045,-0.0060089676,0.0059229432,-0.002326738,1152.0,25085.5,-24445.5,
83.999,0.67943348,1.1871011,9.823585,-0.007607743,0.0043241644,0.0014037369,2176.0,25597.5,-25213.5,
84.122,0.70816384,1.2373793,9.890622,-0.0021452606,0.0003272295,0.00020465534,1408.0,27645.5,-24445.5,
84.240,0.6554915,1.1847069,9.878652,-0.0064086468,-0.0022041648,-0.003259357,1152.0,29437.5,-24189.5,
84.355,0.68901024,1.0242954,9.768518,0.0022513718,0.0033915452,-0.0029928944,-896.0,29436.5,-22909.5,
84.473,0.478320536,1.2996287,9.639232,0.0034504532,0.017780522,0.00047111884,-1920.0,29180.5,-24445.5,
84.591,0.6195784,1.1823127,9.773307,0.00518246,-0.005534947,-0.0005947314,-2432.0,27900.5,-24189.5,
84.711,0.6171842,1.3427243,9.845133,-0.00347757336,-0.00273709,-0.0028596632,-2176.0,25852.5,-25213.5,
84.827,0.6459147,1.1894953,9.790066,0.0010522902,0.00179276984,0.000337886632,-640.0,24572.5,-24445.5,
84.946,0.66746248,1.1368229,9.864286,-0.0053428112,0.0036580116,0.00047111884,-128.0,24572.5,-24957.5,
85.064,0.6219726,1.1990721,9.816402,-0.0040104984,0.00059369208,-0.0045916692,384.0,24317.5,-24701.5,
85.180,0.68661608,1.1559765,9.825979,-0.0005464852,6.0766936e-05,-0.002726432,640.0,24061.5,-23933.5,
85.303,0.6339436,1.1775243,9.881045,-0.0092065184,0.0021924674,-0.0008611949,640.0,24829.5,-24701.5,
85.419,0.70098132,1.1871011,9.835556,-0.0022784918,0.0044573956,0.0020698932,1152.0,24573.5,-24701.5,
85.536,0.67703928,1.2254083,9.881045,-0.0038772672,-0.0004721582,0.0015369672,1152.0,24573.5,-23677.5,
85.653,0.66027988,1.1535823,9.878652,-0.0013458729,0.004723858,-0.0019270442,1920.0,25597.5,-23933.5,
85.770,0.6363378,1.1918895,9.869075,-0.0029446482,0.00059369208,-0.0012608878,1664.0,25853.5,-23933.5,
85.893,0.6195784,1.0961216,9.902594,-0.0016123354,0.00179276984,-0.0009944253,1920.0,26621.5,-24445.5,
86.010,0.6507031,1.1727359,9.909776,-0.0026781856,0.0016595423,-0.0011276575,2432.0,27389.5,-24445.5,
86.127,0.6363378,1.2206199,9.919353,-0.0045434236,-0.00380293668,-0.0049913632,1920.0,28157.5,-24189.5,
86.244,0.66746248,1.2301967,9.835556,-0.0040104984,-0.000738620736,0.001004043,1664.0,29949.5,-23677.5,
86.361,0.638732,1.1799185,9.85471,-0.007074803,-0.00273709,-0.003925513,128.0,29949.5,-24445.5,
86.480,0.6578857,1.2301967,9.888228,-0.00720804936,0.0032583176,-0.000727963636,-896.0,29948.5,-23677.5,
86.598,0.6339436,1.1990721,9.83795,-0.0060089676,0.00179276984,-0.0025932006,-1152.0,30204.5,-23933.5,
86.716,0.68901024,1.1751301,9.804431,-0.002411738,0.004723858,7.142406e-05,-2176.0,28668.5,-25469.5,
86.831,0.67225084,1.1775243,9.909776,-0.0038772672,0.0055232496,0.004201592,-3200.0,27388.5,-25469.5,
86.948,0.61479,1.1823127,9.811614,-0.0026781856,0.0029918552,-0.0005947314,-2176.0,25596.5,-24701.5,
87.068,0.69379864,1.2373793,9.873863,-0.0054760424,0.0012598485,0.0016701994,-896.0,24060.5,-24445.5,
87.186,0.6339436,1.1990721,9.881045,-0.00067971648,0.00059369208,-0.0028596632,1408.0,24317.5,-23677.5,
87.302,0.66027988,1.1463997,9.85471,-0.0049431176,0.00072692332,0.0006043492,1664.0,26109.5,-23933.5,
87.418,0.6315494,1.2756868,9.895411,-0.0040104984,-0.0030035526,0.0016701994,2432.0,27133.5,-24189.5,
87.534,0.69140448,1.2900519,9.861892,-0.0057424904,0.000460457068,-0.0031261258,1920.0,28669.5,-23677.5,
87.658,0.5836654,1.0721796,9.907382,-0.0060089676,0.0011266135,0.001004043,1152.0,29693.5,-24445.5,
87.774,0.6435204,1.1440055,9.830768,-0.0013458729,0.00179276984,0.001004043,-640.0,30204.5,-23677.5,
87.891,0.6530973,1.1990721,9.809219,-0.001878798,-0.0023373962,0.000337886632,-1408.0,29948.5,-24957.5,
88.009,0.67703928,1.2230141,9.861892,-0.009472981,0.0044573956,-0.0021935068,-2432.0,28924.5,-24445.5,
88.126,0.6507031,1.2062547,9.849921,-0.0058757364,0.0025921612,-0.0015273513,-1920.0,28924.5,-22909.5,
88.249,0.67225084,1.2062547,9.900199,-0.0053428112,-0.0019377023,-0.0015273513,-2944.0,27388.5,-25213.5,
88.368,0.6483089,1.2014663,9.869075,0.0003861338,-0.0004721582,-0.0005947314,-2944.0,27644.5,-23933.5,
88.483,0.6339436,1.2349851,9.794854,-0.0037440508,0.0012598485,-0.0043252064,-2688.0,26620.5,-25213.5,
88.600,0.6507031,1.1416113,9.88344,-0.0026781856,-0.003669709,0.0014037369,-2944.0,26620.5,-24445.5,
88.715,0.67225084,1.2062547,9.818796,-0.0057424904,0.0009933859,-0.0019270442,-2432.0,25852.5,-25213.5,
88.837,0.70816384,1.2637158,9.871469,0.0003861338,-0.0014047772,0.0014037369,-1920.0,25852.5,-25469.5,
88.954,0.6291552,1.1631591,9.890622,-0.005609274,0.0035247804,-0.0001950385,-1920.0,25596.5,-24701.5,
89.071,0.68182768,1.1823127,9.926536,-0.005609274,0.0009933859,0.00047111884,-2432.0,25084.5,-24701.5,
89.187,0.7536537,1.2062547,9.88344,-0.0022784918,0.0040577016,-0.0013941191,-1920.0,26108.5,-24445.5,
89.304,0.66027988,1.1080926,9.86668,-0.0038772672,0.004857093,-0.0021935068,-2176.0,25852.5,-24445.5,
89.425,0.67703928,1.1847069,9.809219,-0.0044102072,0.00179276984,0.00073758052,-1920.0,26108.5,-25213.5,
89.544,0.5980306,1.1272462,9.964843,-0.00081294776,0.000460457068,-0.0008611949,-2688.0,25596.5,-25981.5,
89.661,0.6100016,1.2038605,9.904987,-0.007607743,0.0027253888,7.142406e-05,-2432.0,26108.5,-25469.5,
89.777,0.68661608,1.2086489,9.787672,-0.00081294776,0.0059229432,-0.0015273513,-2688.0,26108.5,-24701.5,
89.894,0.66027988,1.2637158,9.85471,-0.0058757364,0.0011266135,-0.0036590504,-2688.0,26876.5,-24701.5,
90.017,0.67943348,1.2182257,9.960054,-0.0030778944,-0.0015380084,0.001004043,-1920.0,25852.5,-25213.5,
90.133,0.66506824,1.2158315,9.864286,-0.0054760424,0.00059369208,0.0030025114,-1664.0,26364.5,-24957.5,
90.251,0.67703928,1.2206199,9.876257,-0.0050763636,0.0059229432,-0.0013941191,-2176.0,26108.5,-24445.5,
90.368,0.590848,1.1104868,9.888228,0.0038501472,-0.0026038588,-0.002726432,-2176.0,24828.5,-24701.5,
90.483,0.5884538,1.1775243,9.823585,-0.00347757336,-0.0012715459,-0.0016605817,-896.0,24572.5,-23933.5,
90.608,0.69858708,1.1918895,9.869075,-0.00414373,0.0009933859,-0.0005947314,-384.0,25084.5,-23933.5,
90.723,0.5980306,1.2086489,9.919353,-0.00361080468,-0.000738620736,-0.0019270442,896.0,24317.5,-25213.5,
90.842,0.66506824,1.1511881,9.787672,-0.00361080468,0.004723858,0.0011372734,1152.0,24573.5,-24189.5,
90.960,0.66746248,1.2996287,9.85471,-0.001878798,0.00072692332,0.0018034298,1920.0,24317.5,-23933.5,
91.076,0.590848,1.1583707,9.943295,-0.00361080468,0.000460457068,-0.0009944253,1408.0,25085.5,-24189.5,
91.199,0.5956364,1.2948403,9.828373,0.0002528876,0.00738848368,0.002336355,1664.0,25341.5,-23933.5,
91.315,0.6578857,1.2349851,9.842738,-0.0022784918,0.0013930798,0.00073758052,2176.0,25341.5,-24445.5,
91.432,0.67225084,1.1607649,9.835556,-0.003344342,0.0049903208,0.0018034298,1664.0,25341.5,-24445.5,
91.549,0.6315494,1.1679475,9.773307,0.0003861338,0.0024589264,-0.000727963636,1920.0,25597.5,-24189.5,
91.666,0.6483089,1.2086489,9.95766,-0.002411738,0.0003272295,-0.0009944253,1664.0,25341.5,-24957.5,
91.786,0.66027988,1.1751301,9.83795,-0.0013458729,0.004857093,-0.0016605817,2176.0,24829.5,-24445.5,
91.903,0.6507031,1.26611,9.835556,-0.0058757364,0.004723858,-0.0040587444,1920.0,25341.5,-24957.5,
92.018,0.6578857,1.2038605,9.830768,-0.0032111108,0.0012598485,0.0026028176,2176.0,25085.5,-23933.5,
92.135,0.626761,1.1751301,9.828373,-0.004676655,0.0045906304,-0.005657519,1664.0,25085.5,-24189.5,
92.250,0.6578857,1.2182257,9.847527,-0.0032111108,0.006189406,7.142406e-05,1664.0,24829.5,-23933.5,
92.371,0.67703928,1.2134373,9.821191,-0.00081294776,0.0040577016,-0.00046150108,896.0,25085.5,-24445.5,
92.489,0.68901024,1.2469564,9.775701,-0.008140668,0.0032583176,0.0018034298,1408.0,25085.5,-24701.5,
92.605,0.6530973,1.2062547,9.902594,-0.0044102072,-0.0004721582,-0.0009944253,1920.0,24829.5,-24189.5,
92.720,0.6291552,1.2038605,9.88344,-0.0010794252,0.0024589264,-0.0019270442,1920.0,25085.5,-24701.5,
92.836,0.6219726,1.1871011,9.904987,-0.0017455816,-0.0034032464,-0.0003282698,2432.0,24829.5,-23933.5,
92.958,0.6554915,1.2038605,9.857103,0.0021181404,0.000460457068,-0.00046150108,1920.0,24573.5,-23421.5,
93.077,0.6530973,1.2349851,9.847527,-0.0030778944,0.0029918552,-0.0065901376,1664.0,25597.5,-24701.5,
93.193,0.69619288,1.1799185,9.859498,0.001451984,0.0036580116,-0.0013941191,1920.0,25341.5,-25213.5,
93.310,0.6435204,1.2038605,9.852315,-0.0045434236,0.005656477,0.0026028176,1664.0,25085.5,-23677.5,
93.426,0.6339436,1.2325909,9.83795,-0.0014791042,0.004857093,-0.0011276575,1920.0,25341.5,-24445.5,
93.548,0.66027988,1.2349851,9.852315,-0.0005464852,0.005123552,0.0020698932,2176.0,25341.5,-24445.5,
93.664,0.66746248,1.1679475,9.814008,-0.0013458729,0.00059369208,-0.00046150108,1408.0,25341.5,-23933.5,
93.782,0.66267408,1.1775243,9.818796,-0.0014791042,0.007122021,-0.00046150108,2176.0,25853.5,-23421.5,
93.899,0.6507031,1.2254083,9.744576,-0.0021452606,0.0049903208,-0.0008611949,1664.0,25597.5,-24445.5,
94.015,0.5836654,1.1775243,10.022304,-0.0050763636,-0.00273709,-0.0020602756,1920.0,25853.5,-24957.5,
94.137,1.0409579,1.1033042,9.509944,0.0049159976,0.021377762,0.0022031236,1664.0,25597.5,-24701.5,
94.255,0.67464504,1.0673912,9.835556,-0.00720804936,0.0029918552,-0.0015273513,1920.0,25597.5,-24701.5,
94.373,0.68661608,1.1607649,9.943295,0.0030507594,-0.0030035526,0.0026028176,1152.0,25597.5,-24445.5,
94.491,0.6219726,1.2421677,9.873863,-0.00028002262,0.0024589264,-0.00339258784,1920.0,25853.5,-23933.5,
94.609,0.6363378,1.2158315,9.842738,-0.0044102072,0.0025921612,-0.00046150108,2688.0,25597.5,-23933.5,
94.732,0.70816384,1.1607649,9.809219,-0.00094617908,0.0075217187,-0.005923982,1664.0,25085.5,-23677.5,
94.850,0.66506824,1.2565332,9.804431,-0.009872675,0.0019260049,0.0011372734,1408.0,25853.5,-23933.5,
94.968,0.6435204,1.1679475,9.840344,-0.0060089676,0.0036580116,0.0018034298,1664.0,25341.5,-23933.5,
95.084,0.6507031,1.2421677,9.914564,-0.00094617908,0.001526311,-0.0016605817,1664.0,25341.5,-25469.5,
95.207,0.6123958,1.1894953,9.857103,-0.0025449544,0.0009933859,-0.0008611949,1920.0,25085.5,-23933.5,
95.329,0.638732,1.1775243,9.842738,-0.008007437,0.000460457068,0.00073758052,1664.0,25085.5,-24189.5,
95.445,0.6195784,1.1344287,9.876257,-0.0012126416,0.0020592324,0.0011372734,1408.0,24573.5,-24957.5,
95.562,0.66027988,1.1440055,9.873863,-0.0014791042,0.0045906304,-0.0035258192,1920.0,25085.5,-24957.5,
95.680,0.602819,1.2086489,9.914564,-0.002411738,0.0011266135,-0.0028596632,1920.0,24573.5,-24189.5,
95.795,0.6243668,1.1559765,9.833161,-0.0014791042,-7.246435e-05,0.0024695872,1664.0,25341.5,-24445.5,
95.918,0.67464504,1.2517448,9.83795,-0.008007437,0.0021924674,-0.00046150108,1664.0,24573.5,-24701.5,
96.034,0.67225084,1.1966779,9.809219,-0.00347757336,0.004723858,-0.00339258784,1408.0,25341.5,-24957.5,
96.152,0.6578857,1.2206199,9.83795,-0.0037440508,0.0029918552,-0.0005947314,1408.0,25597.5,-24189.5,
96.267,0.6507031,1.2206199,9.869075,-0.0038772672,-0.00180447468,-0.002726432,2432.0,25341.5,-23933.5,
96.384,0.69858708,1.1990721,9.85471,-0.004276961,0.0019260049,-0.0015273513,2688.0,25085.5,-24445.5,
96.508,0.5956364,1.1871011,9.943295,-0.0029446482,0.00072692332,0.00047111884,1408.0,25085.5,-24189.5,
96.625,0.6100016,1.1679475,9.88344,-0.00028002262,-0.0022041648,-0.00339258784,2176.0,25085.5,-23677.5,
96.742,0.67225084,1.2110431,9.835556,-0.0020120292,0.0013930798,-0.002726432,1920.0,25085.5,-24445.5,
96.859,0.69140448,1.1990721,9.845133,-0.0040104984,-0.0004721582,-6.180722e-05,1664.0,25085.5,-24701.5,
96.975,0.69858708,1.1727359,9.804431,-0.00347757336,0.0067223272,-0.0005947314,1408.0,25341.5,-24445.5,
97.099,0.6315494,1.1703417,9.873863,-0.005609274,0.0077881776,0.0020698932,1920.0,24317.5,-24189.5,
97.214,0.67703928,1.2421677,9.857103,-0.0021452606,0.004857093,-0.001793813,1664.0,24317.5,-23421.5,
97.331,0.67225084,1.124852,9.83795,-0.0040104984,0.0045906304,-0.0024599694,1664.0,24829.5,-24189.5,
97.447,0.69140448,1.2780809,9.833161,-0.004276961,0.00179276984,-0.0029928944,1408.0,25085.5,-24445.5,
97.564,0.638732,1.1607649,9.926536,-0.00414373,-0.0024706236,0.0015369672,1664.0,25085.5,-24701.5,
97.684,0.67943348,1.2278025,9.895411,-0.0053428112,0.00072692332,-0.003259357,1408.0,24573.5,-25213.5,
97.801,0.6076074,1.1823127,9.806826,-0.0010794252,0.006056171,0.001004043,1920.0,24573.5,-23933.5,
97.916,0.66985668,1.2278025,9.811614,0.0034504532,0.0067223272,-0.0001950385,1664.0,24317.5,-24957.5,
98.033,0.68661608,1.1703417,9.787672,-0.008140668,-0.0012715459,-0.0019270442,1408.0,24829.5,-24189.5,
98.150,0.66027988,1.2278025,9.86668,-0.005609274,0.0045906304,-0.0008611949,1664.0,24317.5,-23933.5,
98.271,0.68182768,1.2254083,9.811614,-0.005609274,0.0020592324,-0.0048581316,1664.0,24573.5,-23933.5,
98.387,0.6507031,1.2110431,9.890622,0.0019849092,0.0027253888,-0.0016605817,1408.0,25085.5,-23933.5,
98.504,0.61479,1.1703417,9.818796,-0.004676655,-0.0026038588,0.0012705056,1920.0,24829.5,-24701.5,
98.620,0.6507031,1.2014663,9.861892,-0.002811417,0.003924474,-0.0009944253,1920.0,26109.5,-22909.5,
98.734,0.66985668,1.2206199,9.928929,-0.0037440508,-0.0032700152,-0.005124594,1152.0,25597.5,-24189.5,
98.856,0.66027988,1.2206199,9.830768,-0.0058757364,0.0029918552,-0.005923982,1152.0,25341.5,-24445.5,
98.972,0.590848,1.1631591,9.876257,-0.0017455816,0.0035247804,0.0016701994,1664.0,25085.5,-24701.5,
99.090,0.69858708,1.2278025,9.895411,0.000919044,0.0019260049,-0.0005947314,1664.0,25085.5,-23933.5,
99.207,0.6243668,1.1751301,9.83795,-0.00347757336,0.0027253888,0.000337886632,1664.0,24829.5,-24445.5,
99.325,0.6459147,1.1847069,9.895411,-0.00067971648,0.0016595423,-0.004191975,1152.0,24829.5,-24189.5,
99.448,0.6339436,1.1655533,9.919353,-0.003344342,-0.0012715459,0.00047111884,1408.0,25085.5,-24445.5,
99.564,0.5884538,1.1942837,9.902594,0.000119671224,-0.0028703212,-0.00046150108,1920.0,25085.5,-23165.5,
99.682,0.68901024,1.2014663,9.857103,-0.0062754304,6.0766936e-05,-0.0009944253,1152.0,24573.5,-23421.5,
99.800,0.6507031,1.1607649,9.871469,-0.0021452606,0.0031250828,-0.0005947314,1664.0,25085.5,-24701.5,
99.916,0.626761,1.1990721,9.852315,-0.0025449544,0.003791239,-0.0025932006,1920.0,24573.5,-23677.5,
100.037,0.67225084,1.1918895,9.825979,-0.0049431176,-0.0003389269,0.000337886632,1152.0,24829.5,-24189.5,
100.155,0.68182768,1.2182257,9.849921,-0.0045434236,-0.0022041648,-0.002726432,1152.0,24573.5,-24701.5,
100.272,0.6578857,1.2493506,9.890622,-0.0058757364,0.00072692332,-0.0001950385,896.0,24317.5,-24445.5,
100.388,0.6530973,1.1392171,9.86668,-0.00361080468,-0.0016712397,-0.002326738,1152.0,24829.5,-23933.5,
100.505,0.6243668,1.2254083,9.845133,-0.00067971648,0.0036580116,-0.0013941191,1152.0,25085.5,-24189.5,
100.628,0.6459147,1.1847069,9.864286,-0.0044102072,-0.00180447468,7.142406e-05,1920.0,25341.5,-23421.5,
100.745,0.6483089,1.2876577,9.878652,-0.0029446482,0.00059369208,0.005667136,2432.0,25597.5,-24189.5,
100.862,0.6339436,1.1583707,9.902594,-0.0064086468,0.001526311,-0.001793813,1664.0,26365.5,-23933.5,
100.977,0.6315494,1.1703417,9.871469,-0.0010794252,0.00072692332,-0.00339258784,1408.0,26109.5,-24957.5,
101.094,0.67703928,1.2014663,9.785277,-0.0045434236,-0.0014047772,-0.0003282698,1920.0,26877.5,-25213.5,
101.217,0.69379864,1.2062547,9.814008,-0.0038772672,0.0036580116,0.0014037369,2176.0,26365.5,-23933.5,
101.334,0.6578857,1.1966779,9.861892,-0.00694158636,0.0020592324,0.0027360496,2432.0,27133.5,-24445.5,
101.451,0.67225084,1.1727359,9.869075,-0.00028002262,-0.0020709336,-0.0008611949,1920.0,26877.5,-24189.5,
101.568,0.66985668,1.2158315,9.857103,-0.006675124,0.0003272295,0.000337886632,1664.0,27133.5,-24189.5,
101.685,0.6411262,1.2469564,9.890622,-0.00094617908,0.0011266135,-0.0019270442,1920.0,27133.5,-23933.5,
101.807,0.6123958,1.1631591,9.825979,-0.0021452606,-0.0004721582,-0.0008611949,1664.0,26109.5,-24189.5,
101.923,0.626761,1.1871011,9.821191,-0.0038772672,0.006189406,-0.0012608878,1664.0,26621.5,-23421.5,
102.038,0.6578857,1.2685042,9.876257,0.0003861338,-0.0032700152,-6.180722e-05,1920.0,26877.5,-23933.5,
102.153,0.67943348,1.1823127,9.955266,-0.005609274,0.005656477,-0.0001950385,1664.0,26365.5,-23933.5,
102.269,0.009056985,0.13125824,9.969631,0.005715385,-0.017792222,0.012328698,1920.0,26109.5,-24445.5,
102.391,1.4192418,1.4289155,9.83795,0.00518246,0.02297654,0.0034022052,1664.0,26621.5,-23933.5,
102.505,0.70576968,1.0290838,9.940901,-0.0030778944,0.0044573956,0.0018034298,1152.0,26365.5,-23933.5,
102.623,0.6315494,1.2708984,9.835556,-0.0030778944,6.0766936e-05,7.142406e-05,2688.0,27133.5,-23421.5,
102.739,0.66027988,1.2421677,9.85471,-0.0013458729,6.0766936e-05,-0.0005947314,1920.0,26621.5,-23677.5,
102.856,0.6171842,1.1799185,9.890622,-0.0030778944,0.000460457068,-0.00046150108,2176.0,27133.5,-23677.5,
102.980,0.67464504,1.2230141,9.804431,-0.00094617908,0.0003272295,-0.0013941191,2176.0,26877.5,-23933.5,
103.097,0.67225084,1.2086489,9.871469,-0.0022784918,0.0077881776,-0.00046150108,1664.0,26365.5,-22653.5,
103.215,0.68182768,1.2301967,9.790066,-0.0025449544,0.0031250828,0.00047111884,2432.0,26365.5,-24189.5,
103.333,0.66027988,1.2469564,9.86668,0.002384603,0.00072692332,-6.180722e-05,1664.0,26109.5,-23165.5,
103.448,0.68422184,1.2421677,9.876257,-0.0005464852,0.0008601546,-0.0016605817,1408.0,26621.5,-22397.5,
103.570,0.6052132,1.2708984,9.878652,-0.006142199,-0.0015380084,-0.0020602756,1408.0,26877.5,-22141.5,
103.686,0.68182768,1.1871011,9.864286,-0.004809886,0.0021924674,0.00073758052,1920.0,27133.5,-22909.5,
103.803,0.5645118,1.0171128,9.878652,-0.0040104984,-0.0010050833,0.0012705056,1664.0,27133.5,-23421.5,
103.919,0.66985668,1.1775243,9.859498,0.0002528876,0.0025921612,0.0031357436,1408.0,27389.5,-22141.5,
104.035,0.6411262,1.2278025,9.86668,-0.003344342,0.0025921612,-0.0019270442,1664.0,26621.5,-22397.5,
104.156,0.66506824,1.2206199,9.873863,-0.009073272,0.005656477,-0.0029928944,1408.0,27389.5,-23421.5,
104.272,0.6339436,1.2014663,9.893017,0.0011855215,0.0023256988,0.00087081176,1664.0,26621.5,-23421.5,
104.389,0.6435204,1.2014663,9.943295,-0.0038772672,-0.0012715459,-0.0021935068,2176.0,26365.5,-24189.5,
104.506,0.68422184,1.2493506,9.88344,-0.0057424904,-0.0006053895,0.0016701994,1152.0,26877.5,-22653.5,
104.622,0.6459147,1.1487939,9.845133,-0.008140668,0.0013930798,0.0027360496,1920.0,27645.5,-23165.5,
104.744,0.6459147,1.2110431,9.873863,-0.002411738,0.0003272295,-0.0029928944,2176.0,27133.5,-23421.5,
104.860,0.67703928,1.2062547,9.835556,0.0022513718,0.0021924674,-0.001793813,1920.0,27389.5,-22653.5,
104.977,0.6076074,1.1224578,9.897805,-0.00014679134,0.0068555624,7.142406e-05,1920.0,26621.5,-22653.5,
105.094,0.602819,1.2613216,9.840344,-0.0045434236,0.0057897084,-0.0043252064,1920.0,27133.5,-23677.5,
105.209,0.6578857,1.1463997,9.904987,-0.0021452606,-0.000205695632,-0.0029928944,1920.0,27645.5,-23421.5,
105.333,0.68422184,1.1775243,9.861892,-0.001878798,0.005256787,0.001004043,1920.0,27389.5,-24189.5,
105.448,0.6554915,1.2301967,9.895411,-0.0030778944,0.0019260049,-0.0028596632,2176.0,27389.5,-23421.5,
105.567,0.6530973,1.1703417,9.842738,-0.007474512,0.00725525236,-0.0019270442,2176.0,27901.5,-23677.5,
105.684,0.69619288,1.2038605,9.888228,-0.00094617908,0.0019260049,0.000337886632,1664.0,26877.5,-23933.5,
105.805,0.67703928,1.2421677,9.885834,-0.003344342,0.00019399822,-0.0012608878,896.0,27133.5,-23421.5,
105.928,0.6554915,1.1751301,9.859498,-0.0026781856,0.0063226336,-0.0008611949,1664.0,27133.5,-23677.5,
106.045,0.626761,1.2565332,9.928929,-0.003344342,0.0003272295,-0.0021935068,2432.0,27389.5,-23421.5,
106.159,0.6507031,1.2182257,9.945689,-0.002411738,6.0766936e-05,-0.0024599694,1664.0,26621.5,-24189.5,
106.276,0.6554915,1.1799185,9.864286,-0.0026781856,0.0043241644,-0.0052578252,1920.0,27133.5,-23421.5,
106.393,0.69140448,1.2301967,9.806826,-1.3560057e-05,0.0045906304,-0.0024599694,2176.0,27133.5,-24445.5,
106.517,0.69140448,1.1966779,9.878652,-0.00361080468,-7.246435e-05,0.0016701994,1664.0,27133.5,-22909.5,
106.641,0.5836654,1.2158315,9.88344,-0.0025449544,0.00059369208,-0.0008611949,1920.0,27133.5,-23677.5,
106.757,0.6435204,1.1847069,9.847527,-0.0014791042,0.004723858,0.0024695872,1920.0,26621.5,-23165.5,
106.873,0.626761,1.1966779,9.833161,-0.001878798,0.0025921612,-0.0016605817,1920.0,27389.5,-23933.5,
106.989,0.6339436,1.2182257,9.869075,0.0002528876,0.004857093,-0.003925513,1664.0,26877.5,-23421.5,
107.110,0.66027988,1.1990721,9.873863,0.000119671224,0.0013930798,0.00087081176,2176.0,26877.5,-23933.5,
107.229,0.70098132,1.2038605,9.802037,-0.0010794252,0.0016595423,0.0022031236,1920.0,27389.5,-23933.5,
107.347,0.6554915,1.1966779,9.828373,0.000785827636,0.0044573956,7.142406e-05,1664.0,27133.5,-22909.5,
107.464,0.66267408,1.1966779,9.888228,-0.0037440508,0.0053900144,-0.0021935068,1664.0,26621.5,-23677.5,
107.581,0.6530973,1.2373793,9.88344,-0.0037440508,0.0040577016,-0.002326738,2176.0,26877.5,-23165.5,
107.702,0.638732,1.2158315,9.83795,-0.0014791042,0.0003272295,-0.0036590504,2176.0,26877.5,-23677.5,
107.818,0.6554915,1.2182257,9.849921,-0.00414373,0.0023256988,0.0030025114,1408.0,26621.5,-24189.5,
107.934,0.626761,1.2278025,9.852315,-0.00361080468,-0.0014047772,-0.0013941191,1408.0,26877.5,-23165.5,
108.051,0.6195784,1.2469564,9.914564,-0.0022784918,0.0041909368,-0.0003282698,1920.0,27133.5,-23421.5,
108.167,0.67943348,1.1535823,9.828373,-0.0040104984,0.0020592324,-0.0025932006,1664.0,27133.5,-23677.5,
108.291,0.6315494,1.254139,9.893017,-0.002411738,0.000460457068,-0.0024599694,1920.0,26877.5,-23933.5,
108.407,0.61479,1.2469564,9.878652,-0.008407116,0.0028586238,-0.0003282698,1408.0,26109.5,-23933.5,
108.522,0.66267408,1.2110431,9.885834,-0.0026781856,0.00179276984,-0.0013941191,1664.0,26621.5,-23677.5,
108.641,0.6483089,1.1727359,9.857103,-0.006541893,0.0019260049,-0.00685660036,2176.0,27389.5,-23933.5,
108.760,0.6435204,1.1727359,9.921747,-0.004809886,0.0021924674,-0.0009944253,1920.0,26621.5,-23933.5,
108.881,0.6435204,1.2062547,9.806826,0.000119671224,0.0019260049,7.142406e-05,1408.0,27133.5,-23421.5,
109.000,0.6578857,1.2038605,9.900199,-0.006675124,0.00059369208,-0.0001950385,1664.0,26877.5,-23677.5,
109.116,0.6291552,1.2086489,9.849921,-0.0049431176,0.0029918552,-0.0015273513,1664.0,26877.5,-24189.5,
109.233,0.66027988,1.2230141,9.878652,-0.006142199,-0.00273709,-0.000727963636,1152.0,27389.5,-23165.5,
109.350,0.67703928,1.2014663,9.85471,0.0005193651,0.0027253888,-0.002726432,2176.0,27389.5,-22909.5,
109.471,0.66267408,1.2230141,9.881045,-0.0040104984,0.0044573956,0.00073758052,1664.0,27389.5,-23165.5,
109.589,0.6123958,1.2206199,9.907382,-0.0020120292,0.0013930798,-0.0016605817,1408.0,27901.5,-24189.5,
109.706,0.626761,1.2014663,9.849921,-0.0012126416,0.001526311,7.142406e-05,1664.0,27133.5,-23165.5,
109.821,0.6123958,1.2325909,9.893017,-0.0030778944,-0.0006053895,-0.003925513,1408.0,27389.5,-23677.5,
109.937,0.638732,1.1871011,9.904987,-0.00094617908,0.00059369208,0.00087081176,1152.0,28157.5,-22909.5,
110.060,0.66027988,1.2421677,9.806826,-0.00094617908,0.0068555624,-0.0008611949,1408.0,28157.5,-23677.5,
110.177,0.6243668,1.1871011,9.833161,-0.0005464852,0.0013930798,-0.0025932006,896.0,27901.5,-23421.5,
110.294,0.6530973,1.1894953,9.833161,0.000119671224,0.0016595423,-6.180722e-05,1408.0,27645.5,-24445.5,
110.412,0.6123958,1.1894953,9.814008,-0.0032111108,0.001526311,-0.0016605817,1152.0,28157.5,-23933.5,
110.528,0.69858708,1.1918895,9.871469,-0.0038772672,0.0024589264,-0.001793813,896.0,27389.5,-23677.5,
110.651,0.6363378,1.2038605,9.859498,-0.0013458729,0.0029918552,0.00020465534,896.0,27901.5,-23933.5,
110.768,0.578877,1.1823127,9.835556,-0.0005464852,0.001526311,-0.0005947314,1152.0,27901.5,-24189.5,
110.883,0.6578857,1.2014663,9.888228,-0.0049431176,-0.000871852064,0.0027360496,384.0,29437.5,-23165.5,
111.001,0.6530973,1.2254083,9.814008,-0.0005464852,-0.0015380084,-0.0005947314,-640.0,29180.5,-24189.5,
111.117,0.6291552,1.1703417,9.85471,0.0017184466,0.00725525236,-0.0021935068,-128.0,28924.5,-23165.5,
111.240,0.67225084,1.1751301,9.919353,0.0031839908,0.003924474,-0.0001950385,128.0,28925.5,-23421.5,
111.356,0.6219726,1.2182257,9.881045,-0.0021452606,0.00059369208,-0.0036590504,128.0,29181.5,-23421.5,
111.474,0.68661608,1.1990721,9.847527,-0.0025449544,0.005123552,-0.0005947314,640.0,28669.5,-23677.5,
111.590,0.66267408,1.2421677,9.85471,-0.0054760424,0.0019260049,-0.00046150108,128.0,29181.5,-23165.5,
111.709,0.61479,1.1392171,9.849921,-0.0025449544,-0.0010050833,0.000337886632,-384.0,28924.5,-22653.5,
111.833,0.6219726,1.2278025,9.830768,-0.0045434236,0.005123552,-0.0043252064,384.0,28925.5,-24701.5,
111.949,0.66506824,1.2014663,9.876257,-0.0017455816,0.0044573956,-0.0008611949,128.0,29693.5,-23165.5,
112.066,0.67225084,1.2206199,9.904987,-0.0038772672,0.00059369208,-0.0009944253,128.0,29437.5,-24189.5,
112.184,0.6363378,1.2134373,9.888228,-0.002811417,0.0041909368,-0.0013941191,-128.0,29180.5,-22653.5,
112.300,0.6243668,1.2062547,9.88344,-0.00361080468,-0.00180447468,-0.0005947314,128.0,29437.5,-22653.5,
112.424,0.6530973,1.2110431,9.909776,-0.0022784918,0.000460457068,0.0015369672,384.0,29437.5,-23421.5,
112.542,0.6052132,1.1918895,9.907382,-0.004676655,0.006056171,0.0018034298,640.0,29693.5,-23165.5,
112.658,0.6004248,1.1679475,9.869075,0.0010522902,-0.00180447468,0.00286928,128.0,29693.5,-23165.5,
112.775,0.6530973,1.2517448,9.821191,-0.0040104984,0.001526311,0.0022031236,384.0,29181.5,-23165.5,
112.891,0.6052132,1.1679475,9.86668,-0.002411738,-0.0019377023,-0.0028596632,128.0,29437.5,-23165.5,
113.029,0.6507031,1.2325909,9.842738,-0.0010794252,0.0025921612,-0.0019270442,384.0,29181.5,-23677.5,
113.146,0.6507031,1.2086489,9.890622,0.000919044,0.0045906304,0.0020698932,384.0,28925.5,-22909.5,
113.262,0.6554915,1.1511881,9.904987,-0.00933975,0.0009933859,-0.0015273513,128.0,29693.5,-22909.5,
113.377,0.6483089,1.2565332,9.845133,-0.0037440508,-0.0003389269,0.0034022052,384.0,29437.5,-23677.5,
113.493,0.68182768,1.1631591,9.873863,-0.009872675,0.008187875,-0.0035258192,-128.0,29180.5,-23677.5,
113.615,0.6411262,1.2158315,9.888228,-0.0016123354,0.0024589264,0.00073758052,384.0,29437.5,-24445.5,
113.732,0.66027988,1.2038605,9.83795,-0.0021452606,0.003791239,-0.0021935068,-128.0,28924.5,-23421.5,
113.849,0.6578857,1.2517448,9.83795,-0.00014679134,0.003791239,0.000337886632,896.0,28925.5,-24189.5,
113.966,0.61479,1.2278025,9.919353,-0.004276961,0.004723858,-0.0005947314,128.0,28925.5,-22397.5,
114.080,0.6554915,1.2086489,9.888228,-0.004676655,0.0063226336,-0.0013941191,128.0,28925.5,-22909.5,
114.203,0.66506824,1.2278025,9.768518,-0.007474512,0.0024589264,-0.0029928944,128.0,28925.5,-22141.5,
114.320,0.67464504,1.2014663,9.897805,-0.0014791042,0.00072692332,-0.0020602756,640.0,28925.5,-23421.5,
114.438,0.6004248,1.1799185,9.907382,-0.0021452606,0.004723858,-0.0025932006,384.0,28925.5,-23933.5,
114.555,0.638732,1.2110431,9.859498,-1.3560057e-05,0.000460457068,0.000337886632,640.0,28925.5,-23677.5,
114.674,0.6123958,1.2014663,9.818796,-0.005609274,-0.00380293668,-0.0019270442,-128.0,29692.5,-23165.5,
114.797,0.6411262,1.2445619,9.85471,-0.0038772672,0.0021924674,-0.0016605817,-128.0,29692.5,-22653.5,
114.914,0.6578857,1.1535823,9.778095,-0.0038772672,0.0040577016,0.000337886632,128.0,29437.5,-22653.5,
115.032,0.6578857,1.2230141,9.818796,-0.0020120292,0.0025921612,0.00193666116,128.0,29437.5,-22909.5,
115.150,0.67703928,1.2062547,9.864286,-0.0025449544,0.0045906304,-0.0012608878,128.0,28925.5,-23677.5,
115.268,0.66267408,1.1679475,9.821191,-0.00361080468,-0.000205695632,0.0020698932,640.0,29693.5,-22909.5,
115.394,0.66985668,1.2325909,9.962448,-0.0037440508,6.0766936e-05,-0.0016605817,384.0,30205.5,-24189.5,
115.512,0.6076074,1.1631591,9.830768,-0.0017455816,0.0011266135,-0.0001950385,384.0,29437.5,-23421.5,
115.629,0.67943348,1.2062547,9.821191,0.0022513718,0.0032583176,-0.0009944253,384.0,29437.5,-23933.5,
115.746,0.6339436,1.2038605,9.876257,-0.0012126416,0.0053900144,-0.001793813,384.0,29181.5,-24701.5,
115.862,0.68661608,1.2325909,9.876257,-0.0050763636,0.0021924674,0.0006043492,384.0,28925.5,-23421.5,
115.986,0.6315494,1.1703417,9.861892,-0.0038772672,0.004857093,7.142406e-05,384.0,29437.5,-23165.5,
116.102,0.6554915,1.1823127,9.821191,-0.0022784918,0.0027253888,-0.002726432,384.0,29437.5,-23933.5,
116.218,0.6507031,1.2182257,9.840344,-0.002411738,0.0027253888,0.00286928,128.0,29181.5,-23421.5,
116.333,0.66506824,1.2182257,9.861892,0.000119671224,0.0041909368,-0.002326738,384.0,28925.5,-22909.5,
116.451,0.6578857,1.1775243,9.859498,-0.004676655,0.00179276984,0.0006043492,-128.0,28924.5,-21885.5,
116.573,0.6507031,1.1344287,9.847527,-0.0040104984,-7.246435e-05,-0.0011276575,128.0,29181.5,-23421.5,
116.689,0.6507031,1.2756868,9.823585,0.0011855215,0.005256787,-0.0005947314,-128.0,28924.5,-23421.5,
116.804,0.66506824,1.1775243,9.95766,-0.00094617908,-0.0022041648,0.000337886632,-640.0,28924.5,-22909.5,
116.923,0.6195784,1.1583707,9.876257,-0.00347757336,0.0035247804,-0.0064569064,128.0,28925.5,-23165.5,
117.042,0.626761,1.1847069,9.938506,-0.004809886,0.005256787,-0.00752275664,128.0,28669.5,-23933.5,
117.164,0.66267408,1.1751301,9.919353,-0.0050763636,0.00179276984,-0.0015273513,128.0,28925.5,-24189.5,
117.283,0.67225084,1.2445619,9.847527,-0.00520958,0.0027253888,-0.0025932006,-128.0,28668.5,-23677.5,
117.400,0.67464504,1.1990721,9.890622,-0.0016123354,0.0008601546,0.00073758052,128.0,28925.5,-22653.5,
117.517,0.6483089,1.2158315,9.816402,-0.0020120292,0.0027253888,-0.0037922818,-384.0,28924.5,-22909.5,
117.636,0.6530973,1.1751301,9.852315,-0.004676655,0.0024589264,-0.0009944253,128.0,28925.5,-23677.5,
117.758,0.5956364,1.2014663,9.91217,0.0011855215,-0.000738620736,-0.00046150108,384.0,28925.5,-24445.5,
117.882,0.66506824,1.2134373,9.828373,-0.0040104984,-0.0011383183,-0.0049913632,128.0,28925.5,-23165.5,
117.999,0.6483089,1.2565332,9.849921,-0.0012126416,0.00059369208,0.00047111884,128.0,28413.5,-23421.5,
118.115,0.6578857,1.1847069,9.909776,-0.004276961,0.003924474,0.0015369672,-128.0,28924.5,-24701.5,
118.231,0.6530973,1.2445619,9.857103,-0.0038772672,-0.0015380084,-0.0012608878,384.0,28925.5,-22909.5,
118.354,0.6195784,1.2349851,9.885834,-0.0020120292,0.004723858,-0.0043252064,640.0,28925.5,-22909.5,
118.470,0.6339436,1.1894953,9.885834,-0.00361080468,0.003924474,0.000337886632,-128.0,28412.5,-22909.5,
118.588,0.6459147,1.2301967,9.857103,-0.0025449544,0.0021924674,-0.0003282698,384.0,28669.5,-23677.5,
118.705,0.6363378,1.2469564,9.97442,0.0026510656,-0.0059346408,-0.0036590504,128.0,28669.5,-23677.5,
118.822,0.6219726,1.1871011,9.816402,-0.0040104984,0.00019399822,7.142406e-05,128.0,28925.5,-23421.5,
118.944,0.6411262,1.1847069,9.842738,-0.00347757336,0.003924474,-0.001793813,384.0,28157.5,-23933.5,
119.061,0.6483089,1.1966779,9.888228,-0.0014791042,0.0067223272,-0.0012608878,-128.0,28156.5,-23677.5,
119.178,0.6052132,1.2182257,9.878652,-0.0014791042,0.0023256988,0.0006043492,-128.0,29180.5,-23165.5,
119.295,0.6123958,1.2134373,9.852315,-0.0005464852,0.000460457068,0.000337886632,128.0,28157.5,-23165.5,
119.414,0.69140448,1.26611,9.83795,-0.004276961,6.0766936e-05,-0.0012608878,128.0,28669.5,-22653.5,
119.535,0.6554915,1.2301967,9.890622,0.000785827636,0.0045906304,-0.0031261258,384.0,28925.5,-24445.5,
119.654,0.69619288,1.1703417,9.864286,-0.002811417,-0.003669709,-0.0021935068,896.0,28925.5,-23421.5,
119.770,0.638732,1.2206199,9.85471,-0.0014791042,0.0040577016,0.0006043492,640.0,28413.5,-23677.5,
119.885,0.6578857,1.2230141,9.825979,-0.0060089676,0.0023256988,-0.0031261258,384.0,27645.5,-24701.5,
120.003,0.6411262,1.1942837,9.85471,-0.0038772672,0.0013930798,0.002336355,-128.0,27644.5,-23421.5,
120.124,0.67225084,1.2134373,9.878652,-0.0025449544,-0.000738620736,-0.002726432,640.0,28413.5,-24189.5,
120.242,0.66027988,1.1894953,9.804431,0.00065259636,0.0036580116,-0.0012608878,-384.0,28412.5,-23677.5,
120.360,0.66746248,1.2349851,9.926536,-0.0030778944,0.0009933859,-0.0016605817,384.0,28669.5,-24445.5,
120.477,0.6459147,1.2373793,9.754153,-0.0030778944,0.0011266135,-0.0024599694,128.0,28413.5,-23421.5,
120.595,0.638732,1.2086489,9.904987,0.0025178344,0.0045906304,0.0012705056,-128.0,28668.5,-22909.5,
120.718,0.6411262,1.2421677,9.828373,-0.001878798,0.0019260049,-0.0009944253,384.0,28669.5,-23421.5,
120.835,0.67225084,1.1847069,9.890622,-0.0026781856,0.0013930798,0.001004043,128.0,28413.5,-23677.5,
120.952,0.68901024,1.1559765,9.847527,0.0005193651,0.0064558648,-0.0005947314,384.0,28413.5,-23421.5,
121.069,0.6076074,1.2301967,9.828373,0.000119671224,0.0040577016,-0.0047249004,384.0,28413.5,-23421.5,
121.187,0.6507031,1.2014663,9.885834,-0.00347757336,0.0044573956,-0.0025932006,384.0,28925.5,-23677.5,
121.312,0.6459147,1.1894953,9.876257,-0.00067971648,0.0003272295,7.142406e-05,384.0,28925.5,-24189.5,
121.428,0.6411262,1.1966779,9.893017,-0.009739429,-0.0015380084,-0.00046150108,384.0,28925.5,-24445.5,
121.544,0.638732,1.2158315,9.945689,0.00185167792,0.00179276984,0.00087081176,-128.0,29180.5,-22909.5,
121.663,0.6435204,1.1823127,9.847527,-0.008007437,0.0011266135,-0.0012608878,384.0,28669.5,-23677.5,
121.780,0.6507031,1.2230141,9.83795,0.001451984,0.003924474,0.00047111884,128.0,28157.5,-23677.5,
121.901,0.6554915,1.2230141,9.873863,-0.00014679134,-0.0016712397,-0.0019270442,-128.0,28668.5,-23165.5,
122.019,0.66027988,1.2158315,9.780489,-0.0017455816,0.0067223272,-0.0001950385,128.0,28925.5,-23165.5,
122.136,0.6578857,1.2254083,9.802037,-0.0030778944,-0.0010050833,-0.0019270442,384.0,28157.5,-23677.5,
122.254,0.6507031,1.2158315,9.842738,0.0026510656,0.0067223272,0.0014037369,128.0,28925.5,-23933.5,
122.372,0.67225084,1.1918895,9.849921,-0.0053428112,-0.0028703212,0.0022031236,384.0,28669.5,-23933.5,
122.495,0.6459147,1.1655533,9.888228,-0.00520958,0.0003272295,-0.0020602756,128.0,28669.5,-22397.5,
122.611,0.66506824,1.2613216,9.869075,-0.010005906,0.0020592324,-0.0009944253,384.0,28925.5,-24445.5,
122.728,0.6435204,1.2158315,9.787672,-0.0010794252,0.0032583176,-6.180722e-05,-384.0,27900.5,-22909.5,
122.844,0.7321059,1.2182257,9.785277,-0.0054760424,0.0023256988,-0.0021935068,-384.0,28412.5,-22653.5,
122.961,0.6411262,1.2086489,9.859498,-0.0050763636,0.0003272295,-0.000727963636,384.0,28669.5,-22909.5,
123.085,0.6554915,1.2230141,9.835556,0.003317222,0.0032583176,-6.180722e-05,-384.0,28412.5,-23165.5,
123.201,0.6459147,1.1966779,9.904987,-0.007474512,0.0033915452,-0.0021935068,-128.0,28668.5,-23165.5,
123.317,0.6171842,1.1775243,9.825979,-0.0062754304,0.0027253888,-0.0012608878,-128.0,28668.5,-22653.5,
123.434,0.6004248,1.2278025,9.840344,-0.00361080468,0.00019399822,7.142406e-05,128.0,28413.5,-24445.5,
123.552,0.69619288,1.2086489,9.881045,-0.0053428112,0.0027253888,-0.0052578252,128.0,28925.5,-23421.5,
123.675,0.6483089,1.1799185,9.926536,-0.0022784918,0.0020592324,-0.0001950385,384.0,28669.5,-23933.5,
123.791,0.69140448,1.2038605,9.833161,-0.0050763636,0.0009933859,-0.0013941191,128.0,28669.5,-23421.5,
123.909,0.6411262,1.2014663,9.773307,-0.0040104984,0.00059369208,0.00047111884,896.0,29437.5,-23421.5,
124.026,0.67703928,1.1990721,9.885834,0.0010522902,-0.000738620736,-0.0043252064,384.0,29181.5,-23421.5,
124.145,0.6578857,1.2349851,9.857103,-0.0029446482,0.008987259,-0.0057907504,640.0,29181.5,-24701.5,
124.268,0.6530973,1.1847069,9.897805,-0.0064086468,0.0045906304,-0.0043252064,384.0,29437.5,-24189.5,
124.385,0.6291552,1.1871011,9.799643,-0.0045434236,-0.0010050833,-0.0024599694,640.0,29181.5,-23933.5,
124.503,0.66506824,1.2014663,9.847527,-0.0038772672,0.0032583176,-0.0019270442,128.0,28669.5,-23421.5,
124.621,0.6578857,1.1703417,9.847527,-0.004276961,0.0027253888,-0.0024599694,640.0,28669.5,-23677.5,
124.738,0.66985668,1.1871011,9.873863,-0.0004132688,-7.246435e-05,-0.003925513,384.0,29437.5,-24701.5,
124.859,0.61479,1.2254083,9.849921,-0.00361080468,0.0032583176,-0.0005947314,640.0,29693.5,-24445.5,
124.976,0.69619288,1.1966779,9.897805,-0.0030778944,0.0019260049,-0.0021935068,384.0,28925.5,-23933.5,
125.095,0.6363378,1.2014663,9.835556,-0.00414373,0.00179276984,-0.0019270442,-384.0,28668.5,-23933.5,
125.212,0.7249233,1.1751301,9.804431,-0.0054760424,0.005123552,-0.0019270442,384.0,28669.5,-23933.5,
125.329,0.67703928,1.2134373,9.885834,-0.0012126416,0.0033915452,-0.0021935068,640.0,29181.5,-24445.5,
125.452,0.6554915,1.2086489,9.907382,-0.00094617908,0.0055232496,-0.0013941191,128.0,29181.5,-23933.5,
125.570,0.6507031,1.1775243,9.900199,-0.004276961,0.003924474,-0.0008611949,640.0,29181.5,-24445.5,
125.685,0.68182768,1.2349851,9.809219,-0.0005464852,0.0035247804,0.0012705056,384.0,29437.5,-24701.5,
125.803,0.6578857,1.2254083,9.849921,-0.0021452606,-0.0003389269,-0.0011276575,640.0,29437.5,-23677.5,
125.921,0.66267408,1.2158315,9.828373,-0.0064086468,0.004723858,-0.000727963636,384.0,29437.5,-23165.5,
126.044,0.6004248,1.1990721,9.802037,-0.0012126416,-0.000738620736,-0.003259357,128.0,28925.5,-23421.5,
126.162,0.6004248,1.2086489,9.825979,-0.0040104984,0.00072692332,0.0006043492,384.0,29181.5,-24189.5,
126.278,0.6411262,1.1368229,9.924141,-0.0010794252,0.0076549464,0.0006043492,384.0,29437.5,-24189.5,
126.394,0.626761,1.26611,9.845133,-0.0057424904,0.006056171,-0.0053910568,384.0,28669.5,-24445.5,
126.509,0.67225084,1.2062547,9.840344,-0.004676655,0.00072692332,0.00193666116,-128.0,29692.5,-22653.5,
126.632,0.6459147,1.2301967,9.91217,-0.006142199,0.0076549464,-0.0024599694,896.0,29693.5,-22909.5,
126.748,0.67943348,1.2325909,9.916959,0.0010522902,-0.000871852064,0.000337886632,640.0,30205.5,-23677.5,
126.868,0.6578857,1.2613216,9.85471,0.0005193651,0.0016595423,0.0034022052,640.0,29181.5,-23421.5,
126.983,0.638732,1.2014663,9.852315,-0.007074803,0.0023256988,0.000337886632,384.0,29693.5,-23677.5,
127.100,0.6363378,1.1871011,9.828373,-0.0010794252,0.0025921612,-0.002326738,384.0,29181.5,-23933.5,
127.221,0.61479,1.254139,9.897805,-0.0025449544,0.0029918552,-0.00339258784,128.0,29181.5,-23165.5,
127.338,0.6554915,1.1990721,9.943295,-0.00067971648,0.004723858,-0.0009944253,384.0,28669.5,-23677.5,
127.454,0.6363378,1.2014663,9.869075,-0.00414373,0.00179276984,-0.003925513,-128.0,28924.5,-23933.5,
127.570,0.67943348,1.2421677,9.797249,-0.0026781856,0.0036580116,-0.0012608878,640.0,29437.5,-23677.5,
127.688,0.68661608,1.2230141,9.869075,-0.001878798,0.0027253888,-0.001793813,384.0,29693.5,-22653.5,
127.810,0.6363378,1.2014663,9.818796,-0.00694158636,-0.0026038588,-0.0008611949,-384.0,30204.5,-23677.5,
127.928,0.6100016,1.1487939,9.890622,-0.0025449544,-0.0010050833,0.00020465534,-128.0,28924.5,-23933.5,
128.045,0.626761,1.2397735,9.785277,-0.006142199,0.0044573956,-0.00339258784,384.0,29437.5,-23165.5,
128.162,0.66506824,1.1918895,9.809219,-0.0062754304,0.00179276984,-0.0003282698,384.0,29437.5,-24189.5,
128.281,0.6578857,1.2685042,9.830768,-0.0037440508,0.004723858,-0.0001950385,-128.0,28156.5,-22397.5,
128.402,0.67225084,1.0506318,9.881045,0.0015852153,0.0029918552,0.0030025114,384.0,29181.5,-22653.5,
128.520,0.6483089,1.3044171,9.833161,-0.001878798,-0.0020709336,-0.0001950385,384.0,29693.5,-23165.5,
128.635,0.6411262,1.2254083,9.890622,-0.00720804936,0.00019399822,0.0015369672,640.0,29693.5,-22909.5,
128.753,0.67464504,1.1152752,9.859498,-0.0037440508,0.0045906304,-0.0043252064,640.0,29181.5,-23165.5,
128.870,0.68661608,1.2493506,9.897805,-0.0016123354,0.00072692332,-0.0005947314,384.0,28925.5,-24189.5,
128.993,0.69858708,1.1751301,9.739788,-0.0049431176,0.0031250828,-0.0019270442,640.0,28925.5,-22653.5,
129.111,0.6507031,1.1416113,9.749365,-0.004809886,0.0041909368,0.00073758052,-128.0,28668.5,-23165.5,
129.227,0.71055808,1.2780809,9.835556,-0.001878798,0.0041909368,-0.0011276575,-128.0,29436.5,-22653.5,
129.349,0.66027988,1.112881,9.88344,-0.0037440508,0.0032583176,0.0011372734,640.0,29437.5,-23165.5,
129.466,0.6219726,1.2685042,9.811614,-0.007474512,-0.0015380084,-0.0020602756,640.0,28669.5,-24189.5,
129.588,0.66746248,1.1799185,9.900199,-0.005609274,0.0027253888,0.00047111884,-384.0,29436.5,-24189.5,
129.705,0.7129523,1.1463997,9.775701,-0.006675124,0.0057897084,-0.003259357,640.0,29181.5,-24189.5,
129.820,0.6435204,1.1942837,9.816402,-0.0038772672,0.0033915452,-0.0020602756,384.0,28669.5,-23933.5,
129.936,0.638732,1.2014663,9.873863,-0.0029446482,0.0028586238,-0.0015273513,640.0,28925.5,-23165.5,
130.053,0.69140448,1.1607649,9.809219,-0.0032111108,0.0032583176,-0.002726432,640.0,29181.5,-24445.5,
130.175,0.67225084,1.2062547,9.835556,-0.0050763636,0.0021924674,-0.002326738,128.0,28925.5,-25213.5,
130.292,0.68182768,1.1918895,9.893017,-0.0017455816,0.00019399822,-0.0021935068,128.0,29181.5,-23165.5,
130.409,0.6291552,1.2062547,9.940901,-0.0049431176,-0.0023373962,-0.0025932006,640.0,28925.5,-25469.5,
130.527,0.6483089,1.2038605,9.890622,-0.0044102072,0.0024589264,-0.0025932006,640.0,28925.5,-23421.5,
130.644,0.6483089,1.1966779,9.909776,-0.00361080468,0.0064558648,-0.0015273513,896.0,28925.5,-24189.5,
130.768,0.6578857,1.2134373,9.897805,-0.0025449544,0.0019260049,-0.0025932006,128.0,28925.5,-24189.5,
130.887,0.6554915,1.1966779,9.945689,-0.0038772672,-0.0030035526,0.00073758052,640.0,28925.5,-23677.5,
131.005,0.6554915,1.2349851,9.849921,-0.0020120292,0.0040577016,-0.0005947314,384.0,29181.5,-23677.5,
131.121,0.66985668,1.2301967,9.830768,-0.001878798,0.0032583176,-0.003925513,640.0,29437.5,-24189.5,
131.237,0.6483089,1.2086489,9.88344,-0.0053428112,0.0009933859,-0.0029928944,-128.0,29180.5,-23421.5,
131.359,0.66267408,1.1727359,9.835556,-0.0064086468,0.0035247804,-0.00046150108,384.0,29181.5,-24701.5,
131.478,0.67943348,1.2325909,9.885834,-0.0016123354,0.0012598485,-0.0012608878,384.0,28925.5,-24445.5,
131.596,0.66267408,1.2206199,9.876257,-0.0017455816,0.0031250828,-0.0012608878,640.0,29693.5,-25213.5,
131.714,0.70816384,1.2110431,9.79246,-0.0068083555,0.0008601546,-0.0045916692,128.0,28925.5,-23933.5,
131.832,0.6483089,1.1799185,9.794854,-0.0030778944,0.009253722,-0.0053910568,384.0,28669.5,-24189.5,
131.954,0.6483089,1.2685042,9.823585,0.0017184466,-0.000205695632,-0.0019270442,-384.0,28668.5,-24445.5,
132.072,0.67464504,1.1320345,9.804431,-0.0045434236,0.0041909368,0.00047111884,-128.0,28668.5,-23165.5,
132.190,0.6291552,1.2756868,9.842738,-0.002411738,-0.0010050833,-0.0003282698,128.0,29181.5,-25213.5,
132.305,0.66267408,1.2182257,9.830768,-0.0044102072,0.006189406,-0.0025932006,384.0,29437.5,-24701.5,
132.422,0.68661608,1.2301967,9.833161,-0.007607743,0.004857093,0.00073758052,384.0,29437.5,-24189.5,
132.544,0.68422184,1.1463997,9.876257,-0.00361080468,0.0027253888,0.0031357436,128.0,28925.5,-23933.5,
132.663,0.67703928,1.2373793,9.825979,-0.0040104984,0.0021924674,-0.0035258192,-128.0,28924.5,-24445.5,
132.781,0.6507031,1.2206199,9.847527,-0.002811417,0.003924474,0.00020465534,128.0,29181.5,-23677.5,
132.897,0.6459147,1.1966779,9.828373,-0.0020120292,0.0055232496,0.0015369672,384.0,28925.5,-24445.5,
133.014,0.6123958,1.1871011,9.823585,-0.00347757336,0.0021924674,0.00047111884,-128.0,28668.5,-23933.5,
133.138,0.66746248,1.2565332,9.864286,-0.006675124,-0.00180447468,0.00047111884,896.0,29181.5,-24957.5,
133.255,0.6507031,1.1966779,9.857103,-0.0017455816,0.0008601546,-0.0047249004,128.0,28925.5,-25213.5,
133.371,0.6435204,1.1727359,9.825979,-0.0038772672,0.005123552,0.00073758052,384.0,28669.5,-23933.5,
133.488,0.6291552,1.1847069,9.814008,-0.0014791042,0.000460457068,-0.0048581316,640.0,29181.5,-23165.5,
133.606,0.626761,1.2349851,9.83795,-0.0029446482,0.00059369208,-0.002326738,640.0,29181.5,-23165.5,
133.727,0.6459147,1.2301967,9.823585,-0.0010794252,0.0011266135,0.00286928,-128.0,29180.5,-23421.5,
133.843,0.638732,1.1703417,9.893017,-0.005609274,0.00019399822,-0.0021935068,-128.0,28924.5,-23933.5,
133.959,0.6483089,1.1679475,9.845133,-0.004276961,0.0035247804,0.0018034298,-128.0,29180.5,-24189.5,
134.077,0.6100016,1.2278025,9.864286,-0.004276961,0.0029918552,-0.0024599694,384.0,29693.5,-23933.5,
134.194,0.6195784,1.1871011,9.895411,-0.004676655,-0.0006053895,-0.00339258784,384.0,28925.5,-23677.5,
134.317,0.66746248,1.3068113,9.904987,-0.0004132688,0.00072692332,-0.00339258784,128.0,29181.5,-23677.5,
134.435,0.6195784,1.1799185,9.859498,-0.007607743,0.0032583176,0.0006043492,-128.0,29692.5,-22141.5,
134.550,0.67225084,1.0985158,9.842738,-0.004809886,0.001526311,-0.0012608878,-128.0,29692.5,-22653.5,
134.666,0.6363378,1.2708984,9.86668,0.0041166096,-0.0004721582,0.003268974,128.0,29181.5,-23677.5,
134.780,0.67943348,1.1440055,9.900199,-0.007874206,0.0053900144,-0.0025932006,128.0,29181.5,-23677.5,
134.903,0.6483089,1.1871011,9.914564,-0.0029446482,0.0009933859,0.0011372734,384.0,29693.5,-23165.5,
135.020,0.638732,1.1727359,9.811614,-0.0030778944,0.004857093,-0.0021935068,128.0,29181.5,-23421.5,
135.136,0.6339436,1.2134373,9.835556,-0.0057424904,0.005123552,-0.000727963636,128.0,29181.5,-24189.5,
135.253,0.5932422,1.2469564,9.928929,-0.002411738,0.001526311,-0.0016605817,384.0,29181.5,-23677.5,
135.369,0.6554915,1.2230141,9.830768,-0.0014791042,0.0036580116,-0.0019270442,128.0,29693.5,-24189.5,
135.492,0.6530973,1.2565332,9.936112,-0.004676655,0.00072692332,7.142406e-05,-128.0,29436.5,-23933.5,
135.607,0.6530973,1.2732926,9.835556,-0.004676655,0.004857093,-0.0015273513,-128.0,29180.5,-24445.5,
135.723,0.66746248,1.2086489,9.825979,-0.0005464852,0.0020592324,-0.0043252064,-384.0,29180.5,-23677.5,
135.841,0.66267408,1.2086489,9.897805,-1.3560057e-05,0.0045906304,-0.0035258192,384.0,29437.5,-23677.5,
135.959,0.69140448,1.2445619,9.821191,-0.0014791042,0.001526311,-0.0013941191,-128.0,28924.5,-22141.5,
136.082,0.66027988,1.2349851,9.91217,-0.002811417,0.006189406,-0.000727963636,-384.0,28924.5,-23933.5,
136.199,0.6530973,1.1847069,9.842738,-0.0020120292,-0.0019377023,0.00087081176,384.0,28413.5,-23933.5,
136.318,0.66985668,1.2278025,9.919353,-0.0029446482,0.00019399822,0.0015369672,384.0,29693.5,-22909.5,
136.436,0.67943348,1.2134373,9.859498,-0.0053428112,0.0057897084,-0.0008611949,-128.0,29692.5,-22909.5,
136.553,0.6411262,1.1918895,9.885834,-0.00774095936,-7.246435e-05,0.001004043,384.0,29437.5,-23677.5,
136.676,0.6483089,1.1751301,9.885834,-0.0062754304,-0.00180447468,0.0014037369,128.0,29693.5,-24445.5,
136.794,0.67703928,1.1511881,9.86668,-0.0060089676,-0.0019377023,-0.003925513,128.0,29437.5,-23421.5,
136.912,0.6243668,1.2182257,9.902594,-0.0049431176,0.0029918552,-0.0015273513,384.0,28925.5,-24189.5,
137.029,0.6411262,1.2565332,9.878652,-0.002411738,0.011785116,-0.0003282698,128.0,29693.5,-23421.5,
137.144,0.6339436,1.2110431,9.809219,-0.004809886,0.006056171,-0.0003282698,384.0,29437.5,-24445.5,
137.265,0.638732,1.1463997,9.871469,-0.0049431176,0.0045906304,-0.0003282698,128.0,29437.5,-23933.5,
137.381,0.67703928,1.1751301,9.833161,-0.0012126416,0.0032583176,-0.0021935068,128.0,29437.5,-23165.5,
137.499,0.61479,1.1775243,9.842738,-0.0040104984,0.0068555624,-0.0016605817,-384.0,29436.5,-23165.5,
137.615,0.6339436,1.2062547,9.864286,-0.004276961,0.0044573956,-0.0037922818,-128.0,29436.5,-23421.5,
137.732,0.6219726,1.2349851,9.852315,-0.0021452606,-0.000738620736,0.00020465534,128.0,29181.5,-22909.5,
137.857,0.6507031,1.2014663,9.893017,-0.0014791042,-0.0023373962,0.00087081176,640.0,29437.5,-23165.5,
