# epoch_start_s=1774910934
timestamp_s,accel_x,accel_y,accel_z,gyro_x,gyro_y,gyro_z,mag_x,mag_y,mag_z
0.089,0.7273175,-0.10576773,9.9672368,0.013842493,0.13728896,-0.084530408,-19072.0,-25343.5,-19583.5
0.207,1.0672941,0.09773941,12.672685,-0.04744388,-0.21550738,-0.13755645,-20864.0,-24575.5,-18047.5
0.324,0.6363378,-0.172805368,10.108495,0.169456568,-0.42934352,-0.217095508,-16768.0,-17663.5,-20351.5
0.444,0.904488464,-0.196747384,8.774924,0.0761947,-0.36379372,-0.11797146,-5760.0,-19967.5,-29823.5
0.561,1.2109463,0.013942353,8.025539,-0.040515856,-0.23655792,-0.20630378,-1664.0,-25599.5,31360.5
0.684,1.385723,-0.0914025136,7.4030468,-0.04171495,-0.19272484,-0.035368084,-384.0,-28159.5,29824.5
0.801,1.5700765,0.013942353,7.891464,0.17904922,-0.10798977,-0.07174021,1152.0,-28926.5,27776.5
0.918,1.5102215,0.200690092,8.657609,0.1256235,0.22348956,-0.089992892,1408.0,-28926.5,28544.5
1.035,0.87815224,0.15520026,10.36228,0.013709247,0.29423536,-0.05348753,-1152.0,-24063.5,-32383.5
1.151,0.6291552,0.31561178,10.513115,0.030496388,0.185252184,0.041106644,-7296.0,-16895.5,-24703.5
1.275,0.9691319,0.195901692,10.637613,0.07925903,0.217094452,-0.0011276575,-14208.0,-17151.5,-17023.5
1.394,0.70098132,0.3682842,11.054204,-0.044646024,0.16420164,-0.019380336,-18816.0,-24063.5,-13439.5
1.510,0.770413168,0.341948,11.391787,0.030762852,0.019246066,-0.032170536,-21632.0,-26367.5,-11903.5
1.627,0.20059312,0.33715956,11.090117,0.086719976,0.074803496,-0.09425629,-20096.0,-19711.5,-12671.5
1.744,0.6315494,0.29406396,11.274471,0.17838306,-0.05842775,-0.10611387,-17024.0,-18943.5,-19327.5
1.866,0.37536984,0.68671304,9.761335,0.39954692,-0.086273068,-0.015116937,-11648.0,-30719.5,-27519.5
1.982,0.5357814,0.99077668,7.9848376,-0.08794616,-0.434406336,0.03710971,-8832.0,24064.5,32640.5
2.097,1.2037637,0.6412232,8.36791,-0.12032138,-0.3968351,0.003268974,-4992.0,23296.5,30848.5
2.211,1.6107778,0.48799428,7.644861,0.03982258,-0.048568636,-0.017781562,-640.0,23296.5,28032.5
2.328,1.4407896,0.7298087,8.214682,0.0574091,-0.058827436,-0.002726432,896.0,24065.5,26496.5
2.448,0.928430464,0.602916,9.047863,0.047017068,0.07253856,-0.012585543,128.0,26625.5,28800.5
2.564,0.9715261,0.602916,10.438894,-0.08688031,0.19710978,0.07827816,-384.0,-30719.5,31872.5
2.678,1.4192418,0.6292522,10.975196,-0.017733306,0.15434253,-0.054819844,-2944.0,-19455.5,-26495.5
2.796,0.9811029,0.44011028,10.939282,-0.08728002,0.2480041,-0.049224136,-7552.0,-13055.5,-16511.5
2.911,1.0433521,0.5047537,11.425305,-0.0073412808,0.039630444,-0.056018928,-12928.0,-14847.5,-10367.5
3.035,0.93082468,0.56939716,11.123636,-0.0466444936,-0.050167404,-0.039498256,-15488.0,-16895.5,-9855.5
3.153,0.9643434,0.684318836,10.704651,0.178649532,0.2224237,-0.07200668,-12416.0,-13311.5,-13183.5
3.271,0.5357814,0.9285274,11.355874,0.107637288,0.11943596,-0.04989029,-10624.0,-17663.5,-17791.5
3.388,0.554935,0.60052176,9.6488088,0.08125749,-0.1912593,0.013794242,-8832.0,-30719.5,-29311.5
3.503,0.5716944,0.906979568,8.633666,0.006115079,-0.246417,-0.03896533,-7552.0,25600.5,31872.5
3.617,1.2372825,0.6244638,7.204328,0.039289652,-0.32049358,0.02844968,-5248.0,19968.5,29568.5
3.738,1.2492535,0.66516524,7.6951392,-0.059967624,-0.07294995,0.0105966936,-1664.0,19456.5,27520.5
3.856,1.3498099,0.7729043,8.331997,-0.039050324,0.08972539,0.024985668,128.0,20481.5,26752.5
3.972,0.899700032,0.679530436,8.947307,-0.090344352,0.100517116,0.030181684,-1408.0,22784.5,29056.5
4.091,0.933218832,0.3706784,9.064623,-0.3017823,0.181255252,-0.032836696,-2432.0,27392.5,28800.5
4.208,0.58605964,0.41377404,9.890622,-0.089278472,0.26399186,-0.060948484,-4736.0,-27135.5,31872.5
4.331,0.27241918,0.31800598,10.855486,-0.08088492,0.05841605,0.0257850544,-7552.0,-9215.5,-24959.5
4.449,0.45437852,0.3587074,11.049416,-0.096073288,0.024975008,-0.014717244,-14208.0,256.5,-9342.5
4.566,0.4208597,0.30603498,11.681485,-0.01706715,0.06720931,0.006999449,-21376.0,-3583.5,-2687.5
4.681,0.3226974,0.2198437,11.602477,0.09058368,0.014050046,-0.033369616,-19072.0,-1023.5,-4735.5
4.797,0.6171842,0.55982036,11.310384,0.14587465,-0.06642162,0.02312043,-10112.0,-2815.5,-17279.5
4.918,0.5285988,0.43771608,9.766124,0.13348414,-0.3567325,0.0505660668,-7296.0,-25087.5,-31615.5
5.034,0.6004248,0.43771608,8.566628,0.1277552,-0.32635582,0.049233752,-4992.0,28672.5,29312.5
5.149,1.2588303,0.42335084,7.788513,-0.1427042,-0.14422865,-0.0025932006,-3200.0,23808.5,29568.5
5.266,1.4527607,0.375466832,7.860339,-0.012137607,-0.0889377,-0.00339258784,-896.0,24064.5,27520.5
5.384,1.5126157,0.41856244,8.770136,-0.054105444,0.10025066,-0.0047249004,-640.0,23552.5,27264.5
5.508,1.3522041,0.48320588,8.676763,0.010911405,-0.01352882,0.051765144,-640.0,25344.5,27264.5
5.625,1.0361695,0.33237118,9.280101,-0.1301805,-0.010198042,-0.0095212252,640.0,30465.5,26496.5
5.742,1.0074391,0.14801764,10.177927,0.10190833,0.023775928,0.0030025114,1920.0,-22014.5,27264.5
5.861,1.1439086,0.24378572,10.956042,0.028231472,0.3123548,-0.039498256,3712.0,-3070.5,-31359.5
5.978,1.0313811,0.353919,11.418123,-0.16908402,0.22055846,-0.0200464932,-1152.0,9984.5,-11902.5
6.096,1.1175723,0.32518858,11.959212,-0.026793032,0.07347118,-0.015783094,-9600.0,9728.5,-638.5
6.219,0.3203032,0.14322924,11.274471,0.04088843,0.0935891,-0.04682597,-6528.0,12032.5,-7294.5
6.334,0.28439018,0.12407564,10.845909,0.23047648,-0.055629896,-0.016582482,-3456.0,-511.5,-23679.5
6.453,0.4567727,0.28927556,9.256159,0.0887184464,-0.24988104,-0.0015273513,-4480.0,-26623.5,31104.5
6.571,1.2157347,0.5047537,8.312843,0.0983111,-0.20591472,-0.027907136,-5504.0,26624.5,29056.5
6.686,1.2875607,0.32758278,7.910618,-0.13817437,-0.3483389,0.029249064,-3968.0,22784.5,29568.5
6.808,1.2372825,0.32279438,7.783725,0.0043830724,-0.10838947,-0.0016605817,-896.0,22272.5,28544.5
6.926,1.4192418,0.464052268,8.499591,0.07179808,0.15953856,0.0109963852,128.0,22785.5,27008.5
7.044,1.1271491,0.5358783,8.923365,-0.0025449544,-0.016859602,0.05096576,-1152.0,23552.5,27008.5
7.160,1.4407896,0.5071479,8.992797,0.10057603,0.15021238,-0.024976048,-896.0,27648.5,27520.5
7.276,1.1271491,0.7298087,10.13962,-0.21571494,0.09731957,-0.12103577,1920.0,-26366.5,27520.5
7.392,1.3593867,0.7633275,11.980761,-0.06169963,-0.07241703,-0.06707712,2176.0,-3582.5,-27519.5
7.513,0.789566768,0.55742616,10.927312,-0.09420805,0.175792768,-0.021245574,-2432.0,10240.5,-6014.5
7.632,1.1103897,0.4975711,12.2680648,0.0532789368,0.10504699,0.02312043,-12928.0,5376.5,4225.5
7.751,0.7584421,0.4736291,11.691062,0.237138052,-0.06229146,-0.051489064,-8576.0,8192.5,-2174.5
7.868,0.530993,0.6196754,10.4053752,-0.1315128,-0.0034032464,-0.065345116,-384.0,-1279.5,-23167.5
7.984,0.68182768,0.42574504,9.655991,0.026099756,-0.2117769,0.017524716,-1408.0,-25855.5,29056.5
8.105,0.9954681,0.449687068,7.690351,0.20449638,-0.06309084,0.059226096,-2944.0,25600.5,25984.5
8.222,1.814285,0.42095664,7.4126232,-0.15869196,-0.35966356,0.046036204,-384.0,20480.5,26496.5
8.339,1.70894032,0.40419724,7.6711976,0.000785827636,-0.041640616,-0.016316019,2688.0,21505.5,25216.5
8.458,1.8238618,0.4999653,7.987232,-0.030789972,-0.0697524,-0.008055681,3200.0,22273.5,23680.5
8.572,1.8334386,0.42574504,8.774924,-0.210119232,0.4553119,-0.0076559876,5248.0,25857.5,22912.5
8.696,0.9954681,0.0737974,10.369463,-0.27939944,0.4992782,-0.0085886068,3712.0,-28158.5,22912.5
8.811,1.0481405,0.0211249584,11.128425,0.18344586,0.14421697,-0.037233324,1920.0,-4350.5,28800.5
8.930,0.81829716,-0.024364874,10.97759,-0.03332138,0.19844207,-0.07813531,-1920.0,19456.5,-14462.5
9.047,1.0170159,0.12407564,12.394958,0.07153161,0.13688925,-0.03789948,-14976.0,14592.5,1153.5
9.166,0.839845,0.236603108,12.023856,0.05927434,-0.014328208,-0.05655185,-12928.0,14848.5,897.5
9.288,0.5214162,0.49038848,10.577758,0.22621308,0.31555236,-0.03430224,-3456.0,4608.5,-22142.5
9.404,0.602819,0.401803016,9.483608,0.20116562,-0.07694689,0.04057372,-5760.0,-28159.5,31104.5
9.519,0.76801896,0.6077044,8.9640664,0.18397878,-0.14476159,0.09253391,-6528.0,23552.5,29312.5
9.636,1.1319375,0.602916,8.109336,0.008246779,-0.354067868,0.0886702,-5504.0,19200.5,30336.5
9.750,1.5221925,0.6508,7.7933016,-0.09980376,-0.18952728,-0.03803271,-1920.0,18944.5,29312.5
9.865,1.6155662,0.43053344,7.884281,0.011844024,-0.06868655,-0.0019270442,-128.0,19456.5,27520.5
9.987,1.3665693,0.7705101,8.298478,-0.107131464,0.07800104,-0.0064569064,1408.0,19713.5,25728.5
10.104,1.3641751,0.385043616,10.28806,-0.32882828,0.181921416,-0.02710775,3200.0,28417.5,23424.5
10.222,0.9619492,0.43053344,10.515509,-0.12764908,-0.07708012,0.012328698,3712.0,-20734.5,25728.5
10.344,1.3354447,-0.077037304,12.035827,0.13188536,0.4212047,-0.06108171,1408.0,9985.5,-22910.5
10.461,1.1295433,0.11689302,11.554592,0.0226357424,0.14288466,-0.05855032,-14208.0,14080.5,-2174.5
10.586,1.3306563,0.238997316,12.239334,0.068200832,-0.037110752,-0.0008611949,-19328.0,11520.5,1153.5
10.705,0.50226252,0.037884372,10.924917,0.30188844,0.07427057,-0.060415556,-9088.0,14336.5,-10110.5
10.822,0.626761,0.28688132,9.526704,0.236471884,0.100517116,-0.015916326,-2688.0,-15871.5,-30847.5
10.940,1.0385637,0.2174495,8.849145,-0.76476088,-0.38324552,0.194455792,-4992.0,31232.5,28800.5
11.057,1.3689635,-0.8910659,7.338403,-1.717231,-0.2445518,0.12117862,-4224.0,-27903.5,27776.5
11.178,0.79196092,-2.4305374,7.0989832,-1.3472478,-0.32409084,0.21137616,-3456.0,-4607.5,23680.5
11.295,0.169468492,-3.8311456,7.5251512,-0.17574556,0.2957009,0.23255994,-2176.0,11776.5,16769.5
11.414,0.50226252,-3.79523268,9.023921,0.21408904,0.30036396,0.22949562,-5760.0,21504.5,12417.5
11.532,0.10243088,-3.8574816,10.410164,1.2582222,0.303828,0.07707909,-5760.0,-30975.5,10881.5
11.648,0.9643434,-2.0618306,11.17152,1.506432,-0.11824857,-0.19817666,-7808.0,-23039.5,29057.5
11.763,1.0170159,-0.29969804,11.298413,1.3195086,-0.07334965,-0.33886884,-13696.0,22784.5,-14718.5
11.887,0.909276864,1.1296404,11.236164,0.9772376,-0.3435426,-0.26852274,-13440.0,512.5,-8830.5
12.006,0.89491165,2.1256282,9.488397,1.0339941,-0.21017812,-0.0937233664,-5504.0,-30207.5,-18047.5
12.125,1.1558796,3.0090888,9.021527,0.2608532,-0.0010050833,-0.015250169,1152.0,6145.5,30336.5
12.242,1.2827723,2.822341,8.126096,-0.0054760424,0.021510996,0.15648488,1920.0,-6142.5,22655.5
12.358,1.6179604,2.4727876,8.408611,-0.82271656,-0.10332668,0.19378964,2432.0,-5630.5,21375.5
12.480,1.7735836,1.1176694,7.908223,-1.1555281,-0.0192577692,0.187927468,1408.0,5121.5,26240.5
12.599,1.6107778,-0.043518484,8.425371,-1.2915572,0.17219554,0.10718934,128.0,22017.5,28800.5
12.716,1.160668,-1.460886,8.262566,-1.1673857,0.3631159,0.17553696,-1408.0,-24063.5,29824.5
12.830,0.9643434,-2.4472968,9.272919,-0.54106564,0.46796888,0.209377692,-5760.0,-5887.5,27264.5
12.947,0.25326556,-2.7178416,9.560223,0.04115489,0.378437468,0.13530113,-12416.0,9984.5,30593.5
13.070,0.2676308,-2.3706824,11.058992,0.44617784,0.18205464,-0.051755524,-29056.0,32000.5,-22910.5
13.186,0.5693002,-2.255761,12.694233,1.1685576,-0.030315958,-0.25226852,16256.0,-30975.5,-18302.5
13.302,0.4256481,-0.206324184,11.047022,1.2277123,-0.09853035,-0.41267892,9856.0,11264.5,-18302.5
13.420,0.83505656,1.2110431,11.528256,0.90662504,-0.26959926,-0.28304492,2944.0,-2047.5,1152.5
13.538,0.4328307,2.2980108,10.503538,1.0847552,-0.15288868,-0.11370805,30336.0,23296.5,11392.5
13.655,0.4567727,3.2676626,9.253765,0.733557636,-0.26999896,0.13250327,-7808.0,-4607.5,-20864.5
13.778,1.3067143,3.497506,9.090959,0.01197724,-0.24228684,0.2809229,1152.0,-14334.5,23679.5
13.893,1.682604,3.1048568,8.513956,-0.37825704,0.022576846,0.24614952,3968.0,-13822.5,19071.5
14.011,2.0249748,2.5685556,8.592965,-1.0284256,0.08479583,0.12224447,4224.0,-7678.5,21119.5
14.127,1.9746966,1.2852635,8.506774,-1.1624562,0.07746811,0.060158716,3712.0,5377.5,24704.5
14.243,1.69457508,0.09773941,9.263342,-0.8927961,0.119036264,0.055229156,1920.0,20737.5,28288.5
14.367,1.5628939,-1.0921788,9.337562,-0.8457654,0.18511896,0.092933592,1152.0,-30462.5,28288.5
14.483,1.172639,-1.7434018,9.871469,-0.5906277,0.3187499,0.11465029,-1408.0,-16383.5,29056.5
14.598,0.66506824,-2.224636,9.821191,-0.11126162,0.2829107,0.07095044,-7552.0,-1791.5,31360.5
14.712,0.638732,-2.090561,10.570576,0.6626786,0.22468864,-0.055619232,-15488.0,7424.5,-24958.5
14.827,0.70337544,-0.7881152,11.401363,0.997621936,0.16540074,-0.13129458,-29568.0,8448.5,-8062.5
14.945,0.68661608,0.4688407,11.628813,1.0607735,0.04042983,-0.18178922,21376.0,-4351.5,7552.5
15.068,0.36100464,1.2349851,11.082934,0.7977751,-0.00939865,-0.20137422,24192.0,31744.5,10880.5
15.184,0.5956364,2.3435006,10.264118,0.7880492,-0.22589942,-0.031237918,-21120.0,7680.5,-8063.5
15.301,0.49986832,2.9324744,9.6488088,0.48761278,0.09558757,-0.025375742,-10112.0,-4095.5,-27264.5
15.419,0.7225291,2.7313614,9.167574,-0.12684972,-0.12770799,0.08853697,-7296.0,-9471.5,29567.5
15.535,0.66506824,2.5470078,8.885057,-0.5192157,-0.15688562,0.111585976,-6016.0,-8447.5,28287.5
15.659,1.0672941,1.5438373,8.011174,-0.9849921,-0.11052117,0.05549562,-7040.0,256.5,29056.5
15.775,1.2803781,0.238997316,8.456495,-1.0982387,-0.15275547,0.0837406436,-6016.0,14080.5,31872.5
15.895,1.4144534,-0.845576064,8.920971,-0.9985817,-0.04483816,0.11425059,-4736.0,30720.5,30848.5
16.011,0.91167108,-1.9181784,8.492409,-1.0906446,0.20443748,0.17007448,-4224.0,-18687.5,30336.5
16.129,0.66985668,-2.9812038,9.723028,-0.40676856,0.38456612,0.196187816,-6528.0,768.5,29569.5
16.253,-0.065163252,-2.8207924,10.060611,0.411670968,0.29383564,0.035910624,-16512.0,19968.5,-30846.5
16.371,-0.017279208,-2.0881668,10.802814,0.95099108,0.16580042,-0.12929611,-32384.0,32000.5,-17278.5
16.488,0.28439018,-0.864729664,11.135608,1.1512376,-0.0680203968,-0.171130732,13696.0,26880.5,-12414.5
16.609,0.7345001,0.679530436,11.568957,0.93913348,-0.31556404,-0.193513568,384.0,9472.5,-4734.5
16.728,0.5333872,1.4360981,10.843514,0.96244892,-0.41575396,-0.14008784,-1408.0,-17408.5,22400.5
16.851,0.70337544,2.501518,10.084553,0.90875672,-0.49995608,-0.0011276575,-24960.0,1024.5,3968.5
16.968,0.918853664,3.1287988,9.296861,0.47042596,-0.47943848,0.14489378,-3712.0,-13311.5,-30080.5
17.086,1.3354447,3.071338,8.638454,0.08192365,-0.15128992,0.1727391,1920.0,-17406.5,22911.5
17.201,1.2085521,3.2652684,8.169191,-0.33189256,0.05934867,0.14915718,1920.0,-18174.5,19327.5
17.317,1.6419024,2.5901034,8.138066,-0.8809385,-0.1379668,0.197786576,2688.0,-13054.5,21375.5
17.434,1.8669574,1.4217329,8.382276,-1.252254,-0.07348287,0.06388919,3712.0,-510.5,23935.5
17.555,2.2021458,0.40659144,8.803655,-1.1278161,0.30542678,0.050832524,3456.0,16897.5,25984.5
17.672,1.5150099,-0.9006427,7.9680784,-0.9366291,0.214696284,0.03204692,640.0,32001.5,28544.5
17.788,0.957160864,-1.6189032,7.915406,-0.730653636,0.3751067,0.04044049,-2944.0,-17919.5,29824.5
17.905,0.10243088,-2.3850476,9.0598344,-0.22037802,0.47596276,0.08147571,-8576.0,-2303.5,31616.5
18.022,-0.16571975,-2.6651692,11.080541,0.61578124,0.14634867,0.18166558,-22656.0,20480.5,-19582.5
18.146,0.89491165,-0.71389496,11.047022,1.188409,-0.232028052,0.06708674,10368.0,30976.5,-10622.5
18.265,0.76801896,0.13844084,11.061387,0.5429037,-0.0530985,-0.09625476,-3200.0,15359.5,-26750.5
18.380,0.6100016,0.5191189,11.166732,0.24113498,-0.089470624,0.021921348,-13184.0,7679.5,25473.5
18.496,0.530993,0.863884,10.73817,1.0295974,-0.1921919,-0.3178183,-25216.0,5887.5,6017.5
18.609,0.88054648,2.0705616,9.612895,1.4195653,-0.201118416,-0.38070348,24960.0,17408.5,18560.5
18.732,1.1127839,3.7273492,9.347138,0.8426741,0.13195969,-0.10757942,-7040.0,-14847.5,-25728.5
18.849,0.94997824,3.8183288,7.8723107,-0.35987116,-0.2040495,0.11984631,-2176.0,-22783.5,23167.5
18.967,1.2755897,2.8726192,8.011174,-0.87081292,0.040962756,0.16221383,-1664.0,-18431.5,21375.5
19.084,1.3545983,1.4360981,7.716687,-1.2466583,-0.23802348,0.16274676,-1664.0,-5119.5,26239.5
19.201,1.8047082,0.0714032,8.530716,-1.4874071,-0.07987797,0.10665642,-128.0,12032.5,30080.5
19.316,1.6730273,-1.295686,7.93456,-1.2510549,0.048157244,0.14049715,-384.0,-32767.5,30848.5
19.438,1.0409579,-2.306039,8.494802,-0.788209536,0.13782187,0.18992594,-2688.0,-12287.5,29824.5
19.556,0.7129523,-3.1176734,9.378263,-0.19786192,0.21935938,0.09733023,-6784.0,5376.5,31617.5
19.672,0.88054648,-2.8974068,10.893793,0.47402316,0.352590632,0.097996384,-18816.0,25088.5,-23678.5
19.790,0.49507992,-2.0498596,11.600082,1.4279587,0.2458724,-0.12823026,18048.0,-30463.5,-11646.5
19.909,0.36339884,-0.1823822,10.8985816,1.5529298,0.21842676,-0.29623484,1664.0,12800.5,-8574.5
20.032,0.4112829,1.3858199,11.121243,1.0545117,-0.16447982,-0.1002517,-1920.0,-14336.5,11648.5
20.150,0.23650616,2.3937788,10.041457,0.9757721,-0.28691936,0.024452742,27776.0,9728.5,11648.5
20.267,0.784778336,3.236538,9.569799,0.380894536,-0.050300644,0.18033327,-8832.0,-11519.5,-22912.5
20.386,0.789566768,2.858254,8.6695792,-0.216381084,0.3162185,0.10758903,-2688.0,-13567.5,29311.5
20.504,0.9906797,2.2692804,8.281719,-0.6877532,-0.045637548,0.10052778,-4224.0,-9471.5,27263.5
20.653,1.3378389,1.1272462,8.384669,-1.2796997,-0.31742924,0.073481832,-3456.0,3840.5,30080.5
20.770,1.87414,-0.206324184,8.372699,-1.2715726,-0.2574752,0.11012042,-640.0,22784.5,30848.5
20.886,1.6658447,-1.3100512,8.760559,-1.0124378,0.119169496,0.10265948,1152.0,-24574.5,28288.5
21.004,1.3929056,-2.15281,9.318408,-0.54039944,0.1464819,0.13330266,-1152.0,-8703.5,27520.5
21.119,1.3234737,-2.3754708,10.467625,-0.037451536,0.231749884,0.053097456,-5504.0,4352.5,32385.5
21.238,0.8566044,-2.4688446,10.685497,0.7708624,0.18924913,0.14009746,-18048.0,17152.5,-19838.5
21.362,0.480714736,-1.154428,11.303202,1.2347735,0.14741452,-0.14355186,16768.0,25600.5,1665.5
21.480,0.047364236,-0.029153272,11.02308,1.3016555,0.245339468,-0.18458708,-10624.0,8959.5,11905.5
21.598,0.5693002,2.2788572,11.214616,0.9328716,-0.17873556,-0.10797911,-11392.0,-31488.5,29824.5
21.714,0.5166277,2.81037,10.163562,0.7919129,-0.22683204,0.028982606,27776.0,-7167.5,10367.5
21.829,0.58605964,3.0210598,9.047863,0.36850404,-0.036311364,0.032579848,-11136.0,-15871.5,-25472.5
21.952,0.5573292,3.1216162,8.932941,-0.17428,-0.2807907,0.13783252,-6272.0,-15871.5,29567.5
22.066,1.0936303,3.1000684,8.537898,-0.51814984,-0.17407246,0.08840374,-4736.0,-13567.5,26495.5
22.182,1.3522041,2.1184456,8.691128,-0.9849921,-0.253878,0.12104539,-3456.0,-6399.5,26751.5
22.297,1.7711894,0.851913,8.394246,-1.0733244,-0.338479816,0.14436084,-1664.0,7424.5,30080.5
22.413,1.4934621,-0.431379136,8.391852,-1.0366858,0.11330732,0.09133483,-384.0,22784.5,29824.5
22.530,1.2684071,-1.5973554,8.411006,-0.9805955,0.34539616,0.11878046,-2688.0,-25343.5,30080.5
22.652,1.0553231,-2.5454592,8.942518,-0.67376392,0.30302858,0.118647224,-7040.0,-7423.5,30336.5
22.770,0.35142782,-2.8088214,9.50755,-0.096073288,0.26812202,0.07508062,-13184.0,7680.5,-31358.5
22.887,0.68182768,-2.6292562,10.829149,0.59846116,0.11397348,0.0050009796,-27520.0,22784.5,-21118.5
23.006,0.23411196,-1.6715756,11.013503,1.272478,0.15780654,-0.10544772,8064.0,25344.5,-10878.5
23.123,0.07848883,0.25096834,10.877033,1.2884657,-0.24255334,-0.17153042,-13696.0,8703.5,-13694.5
23.246,0.4519843,1.3092055,11.236164,0.73382416,-0.17034198,-0.08906027,-26752.0,-17408.5,10624.5
23.362,0.5884538,2.0538022,10.367068,0.90302784,-0.2561429,-0.023643736,11648.0,3840.5,21632.5
23.478,0.638732,3.0282424,9.514732,0.74474904,-0.16208166,-0.0028596632,-15744.0,-12287.5,-14464.5
23.594,0.82308552,3.1479526,8.9401248,0.091915992,-0.017658986,0.1305048,-4992.0,-15615.5,30847.5
23.711,0.89730584,2.8151584,8.569023,-0.529208,0.05841605,0.16714339,-2432.0,-13055.5,25727.5
23.832,1.3952998,2.2190022,8.640849,-0.86228616,-0.08653954,0.12397648,-2176.0,-5375.5,26239.5
23.948,1.682604,0.88543176,8.6456376,-1.1551285,-0.044172004,0.10425826,-384.0,8448.5,29056.5
24.067,1.637114,-0.30688068,8.72704,-1.2282723,-0.0058014056,0.16461201,-128.0,24576.5,30848.5
24.183,1.6538734,-1.307657,9.181939,-1.060934,0.14128586,0.13796576,-128.0,-20735.5,29824.5
24.299,1.4288186,-2.329981,8.604936,-0.5613168,0.38882952,0.14209591,-3712.0,-6911.5,28032.5
24.414,0.5764828,-3.184711,9.301649,-0.15163072,0.17565954,0.16474522,-9600.0,5376.5,-32126.5
24.535,0.4448017,-2.473633,10.201869,0.29136316,0.037365516,0.15914952,-24192.0,14848.5,-14462.5
24.651,0.5285988,-1.7649496,11.276865,1.0497154,0.122100584,-0.096920916,6528.0,23296.5,9345.5
24.769,0.5166277,-0.31166908,10.740564,1.5913002,0.03576674,-0.16366978,27008.0,11263.5,14465.5
24.886,0.2652366,1.4696169,11.039839,1.4451456,-0.057628364,-0.1915151,13440.0,-22528.5,11392.5
25.003,0.3083322,3.0043004,10.51072,0.894501,-0.18073402,0.023653354,-24704.0,-6400.5,25727.5
25.123,0.578877,3.5382072,9.316014,0.7789895,-0.115450728,0.051765144,-29824.0,-29183.5,-8064.5
25.239,0.19819892,4.28041,8.899423,0.21315642,0.065477304,0.1837973,-10624.0,-26623.5,32639.5
25.354,0.82787392,3.8470592,7.9513187,-0.28379608,-0.09759773,0.282122,-6784.0,-23807.5,24959.5
25.471,1.0481405,3.0282424,8.001597,-0.80379768,-0.14516128,0.13117096,-3712.0,-17151.5,23935.5
25.588,1.3282621,1.8095937,7.9920208,-1.0123046,-0.16741091,0.13916484,-2176.0,-5887.5,26751.5
25.713,1.87414,0.9668346,8.650426,-0.96633976,-0.085340456,0.083873868,-384.0,8704.5,28544.5
25.827,1.625143,0.19111328,8.72704,-0.8637517,0.07920012,0.03804233,384.0,22017.5,29312.5
25.940,1.5341635,-0.6492515,9.368687,-0.717597,0.20203932,0.06868552,-384.0,-30463.5,30592.5
26.054,1.3929056,-1.3028686,9.488397,-0.51495224,0.2731848,-6.180722e-05,-3456.0,-19711.5,30336.5
26.170,0.80632616,-1.7553728,9.543463,-0.17361386,0.38936244,-0.02710775,-7808.0,-10239.5,-31615.5
26.286,0.67703928,-2.2222418,9.825979,0.07792672,0.30049724,-0.10717972,-14720.0,-4607.5,-24703.5
26.410,-0.00770241,-1.84874652,9.665567,0.33213192,0.14328435,-0.08146609,32128.0,-1023.5,-4991.5
26.526,-0.09389371,-1.1472454,10.321579,0.5167904,0.16699952,-0.06574481,-7040.0,5375.5,17793.5
26.642,-0.1058647,-0.414619736,11.281653,1.1881425,0.010186341,-0.170864268,4736.0,3327.5,14465.5
26.761,0.03060478,1.6731241,10.625643,1.2767414,-0.097730968,-0.22162536,-28800.0,-32001.5,20864.5
26.878,-0.53203252,2.2357616,10.505932,0.8132299,-0.190726368,-0.032037308,9856.0,-30464.5,-17280.5
27.001,-0.2207864,3.0617612,10.221023,0.663478,-0.23895608,0.038442024,30592.0,31488.5,-4224.5
27.117,0.083277224,3.4568044,8.894634,0.49907064,-0.248548732,0.12437617,-13184.0,-23295.5,-31360.5
27.235,0.58605964,3.677071,8.300873,0.015840962,-0.06735424,0.15648488,-7040.0,-23295.5,23423.5
27.350,0.81350872,3.0138772,7.822032,-0.6540457,-0.11425163,0.1526212,-4992.0,-21759.5,23167.5
27.465,1.1510912,2.2381558,8.272142,-0.9500856,-0.33488256,0.14436084,-3200.0,-12799.5,24703.5
27.587,1.4886737,0.9572578,8.971249,-1.3150059,-0.2284308,0.12930572,-1152.0,3584.5,27776.5
27.703,1.75443,-0.15365176,8.995191,-1.20096,-0.14742622,0.11478352,1664.0,22017.5,29312.5
27.817,1.9363894,-1.2861092,8.255383,-1.1287486,-0.0024706236,0.10372533,2688.0,-26878.5,27520.5
27.935,1.931601,-2.2605492,9.615289,-0.6557777,0.26479124,0.071350136,1664.0,-9982.5,27520.5
28.050,1.2372825,-2.839946,9.49079,-0.05130759,0.45691068,-0.03376931,-2944.0,2816.5,29057.5
28.164,0.37536984,-2.8112156,9.969631,0.30481952,0.3459291,0.0063332924,-15488.0,13312.5,-16766.5
28.286,0.305938,-1.95887968,10.889005,0.87598184,0.12143443,0.02418628,14464.0,30976.5,20609.5
28.402,0.32509164,-0.6779819,11.267288,1.4697934,-0.005002022,-0.14768202,14976.0,30975.5,-2174.5
28.518,0.18383372,0.7441739,11.176309,1.1810814,-0.075214888,-0.12902964,2688.0,23039.5,22912.5
28.635,0.918853664,1.2589274,10.979984,0.926210064,-0.16727766,-0.11330836,9600.0,30464.5,31359.5
28.754,0.4136771,2.8606482,9.926536,0.487746,-0.19991932,0.1010607,-14464.0,-21759.5,-23424.5
28.874,0.5525408,2.6739006,8.604936,-0.18040864,-0.12131289,0.23122762,-5248.0,-13823.5,30335.5
28.991,1.1199665,2.0466196,7.819638,-0.5719753,0.06294591,0.244550752,-2944.0,-7423.5,28543.5
29.108,1.3450215,1.4432807,8.619301,-1.4377118,-0.1602164,0.19285702,-1920.0,3072.5,28032.5
29.224,2.0177922,-0.170411168,8.825203,-1.6158421,-0.357798336,0.214573716,-384.0,24576.5,29824.5
29.344,2.1087718,-1.88705368,8.31045,-1.0795864,0.12862891,0.12197801,1152.0,-19198.5,27776.5
29.462,1.1463028,-2.9764154,9.05744,-0.687353536,0.36857836,0.13676667,-128.0,-2559.5,25728.5
29.585,0.77280732,-3.4001892,9.157997,-0.040782316,0.50607308,0.12784018,-5760.0,8192.5,26497.5
29.701,0.4471959,-3.4983516,10.493961,0.43685168,0.56069784,0.033246004,-12672.0,9472.5,-29310.5
29.818,0.58605964,-2.255761,11.317567,1.2486296,0.40681576,-0.052688144,-32384.0,-1535.5,-639.5
29.935,0.1503149,-0.50320524,11.324749,1.440749,-0.10119498,-0.24840484,-3968.0,30975.5,-29311.5
# --- temperatures (°C) ---
# format: TEMPS,t_pin7,t_pin8,t_pin9
TEMPS,,,
