# epoch_start_s=1609459202
timestamp_s,accel_x,accel_y,accel_z,gyro_x,gyro_y,gyro_z,mag_x,mag_y,mag_z,wind_vane_deg
# wind_vane_deg is blank for the first 270 s, populated for the final 30 s
0.125,-3.73547468,1.6228459,7.240241,3.1804826,1.3719428,0.7069964,25472.0,30716.5,-25214.5,
0.242,-4.712309,6.358577,5.1333436,2.0413556,0.30182952,0.5471189,21376.0,-12547.5,7808.5,
0.358,-4.8296248,7.977057,4.3528336,0.5989941,-0.73777384,0.4320071,29056.0,-29699.5,-16511.5,
0.473,-3.3164892,7.7424252,3.6273908,-0.9422248,-1.5619423,0.31103316,-25728.0,-31491.5,-21375.5,
0.595,-1.0515745,6.4040668,3.1629156,-2.4739844,-2.1140526,0.168076016,-10624.0,-18435.5,-5247.5,
0.713,1.3498099,4.366601,7.30488436,-3.7733886,-1.93312468,-0.003259357,6528.0,12285.5,17025.5,
0.833,3.7488,0.5382725,9.787672,-4.0579704,-0.9895808,-0.08546303,22656.0,-3842.5,28033.5,
0.946,6.1765204,-7.0992312,10.276089,-2.957614,0.370443568,-0.016182788,30080.0,-19458.5,20098.5,
1.064,3.894846,-11.080788,10.865063,-0.497632268,1.6406702,0.16994124,22400.0,13821.5,10883.5,
1.190,1.5293751,-10.690533,8.214682,2.3898886,2.3906288,0.43040836,-1408.0,12796.5,28803.5,
1.308,-2.753852,-5.8710056,8.334392,4.4773556,1.9239198,0.61959668,-31872.0,-26371.5,-14461.5,
1.424,-2.3013478,8.326611,4.78379,4.5479684,0.6550256,0.65543584,16768.0,-30211.5,-25470.5,
1.538,-5.53352,7.416814,5.267419,3.82398936,-0.72751508,0.6052077,20864.0,-24067.5,-11903.5,
1.653,-3.1536834,8.455898,3.749495,1.9215806,-1.6757219,0.438135736,-31360.0,18428.5,-895.5,
1.770,-0.71638616,7.807069,2.7223826,0.07646117,-2.013996,0.21657218,-22400.0,14844.5,-29823.5,
1.892,0.80153776,6.9379736,1.7694902,-1.551225,-1.834267,-0.014584012,-20608.0,14844.5,-25983.5,
2.008,1.9028706,6.176617,2.5476058,-2.906986,-1.1554538,-0.21189948,-20096.0,18428.5,2176.5,
2.124,1.1917926,4.7113656,7.070253,-3.900092,-0.010464504,-0.355922468,-22656.0,-29699.5,-16511.5,
2.241,-0.39556308,1.9197268,9.040681,-3.50173032,1.4887866,-0.26332672,31104.0,14076.5,-30590.5,
2.358,-4.029961,-3.3906124,8.96646,-1.90255568,2.791255,0.040973416,5760.0,-6147.5,-12926.5,
2.480,-7.6619656,-4.8151628,7.300096,0.102441268,2.2920378,0.3645921,-30080.0,14331.5,-25469.5,
2.597,-9.646758,-2.971627,6.047929,1.6103524,0.66861516,0.61320156,15488.0,5115.5,21122.5,
2.712,-9.105669,-0.26617924,5.3703692,2.5057996,-0.846757,0.8109167,15488.0,-19204.5,12161.5,
2.827,-6.862302,2.6834774,4.530005,2.2511944,-0.8722041,0.9091081,28800.0,15611.5,4737.5,
2.942,-4.058692,4.737702,4.343257,0.65148724,0.25586474,0.87420152,-23168.0,-7428.5,-9087.5,
3.057,-4.8775088,4.9459976,4.7023872,-0.79060776,0.105713144,0.78626892,-17536.0,-16900.5,-16511.5,
3.181,-5.0977756,4.0290184,5.051941,-1.8312769,-0.9286942,0.727380736,-11136.0,-14596.5,-3711.5,
3.300,-0.74511656,1.3906083,4.9657492,-2.1041346,-1.68717968,0.7407039,3200.0,508.5,21377.5,
3.418,-1.0515745,-0.8934601,9.488397,-1.76119732,-1.6120373,0.7817391,26752.0,27388.5,-22398.5,
3.534,0.9978623,-2.3611056,11.15955,-1.3898818,-1.4738765,0.798393,-15232.0,-11779.5,-18558.5,
3.649,3.73204068,-1.769738,10.326367,-0.9687379,-1.1467938,0.82623832,3200.0,14333.5,-23933.5,
3.772,3.0209628,-0.82642248,6.375934,-0.6301973,0.05988159,0.82863648,14720.0,-29954.5,-32125.5,
3.887,3.82780868,-3.67791636,7.664015,-0.01613453,1.0612475,0.8739351,9856.0,-16130.5,-31613.5,
4.004,0.7297117,-3.7593196,9.756547,0.991093664,1.4882537,0.94481416,-7040.0,-14851.5,-24445.5,
4.122,-2.1409362,-3.1224618,11.243346,1.86255908,1.2848095,1.0272843,-28800.0,-28931.5,-14973.5,
4.241,-9.673095,9.133457,9.117295,2.19657,0.378437468,1.205681,21632.0,3324.5,-12925.5,
4.362,-4.178402,4.285198,10.491567,1.5366756,-0.6712914,1.0009046,25216.0,-31491.5,-23422.5,
4.477,-2.540768,5.968322,9.979208,0.22727894,-1.3634278,0.87486776,-23168.0,16380.5,32129.5,
4.593,-0.19684434,4.8119224,9.682327,-1.1452694,-1.5130465,0.7093945,-1408.0,19452.5,25985.5,
4.709,1.70894032,2.087321,10.036669,-2.0291254,-1.0871061,0.5866885,17024.0,-25090.5,24449.5,
4.827,6.372845,-4.039441,10.40777,-2.0296584,-0.23908932,0.42521232,27520.0,6141.5,22658.5,
4.942,2.9587136,-4.166334,9.550646,-1.1899018,0.5998678,0.6121357,28032.0,-28418.5,21378.5,
5.062,0.70337544,-4.537435,8.777319,0.15799868,1.2144635,0.737906036,17024.0,-7938.5,26242.5,
5.179,-1.3604264,-3.266114,8.042298,1.3738669,1.1367897,0.8787314,640.0,-7426.5,-28797.5,
5.294,-1.9637654,-0.6755877,8.102154,2.0025852,0.55403624,0.9489443,-14208.0,-25091.5,-15997.5,
5.409,-0.9318643,2.750515,8.454102,1.6543187,-0.11558394,0.89765024,-20096.0,14588.5,-13181.5,
5.525,-1.3269076,4.5078588,9.35911,0.73009368,-0.4162869,0.8107835,-16256.0,-5891.5,-18046.5,
5.646,0.10243088,5.130351,10.247358,-0.28126472,-0.49476004,0.691808036,-7552.0,-12291.5,-24190.5,
5.764,0.923642064,3.80156936,10.235388,-1.2689079,-0.3359484,0.57123376,-384.0,-3331.5,-24958.5,
5.883,1.160668,1.3546953,9.533886,-1.99395232,0.037365516,0.46065184,2432.0,21245.5,-26237.5,
6.000,1.0026507,-0.7689616,9.447695,-1.9266706,0.42959828,0.4297422,-1664.0,-12803.5,-26237.5,
6.115,-0.8959512,-3.47680368,9.670356,-1.077055,0.418007132,0.5403241,-11136.0,14076.5,-32636.5,
6.232,-1.9422174,-4.1806992,9.83795,0.079791952,0.06787547,0.6676932,-21888.0,26108.5,25731.5,
6.352,-2.0140436,-3.49595732,9.926536,1.1990675,-0.35593312,0.7950622,-28032.0,22012.5,29059.5,
6.469,-1.1377656,-2.066619,9.770912,1.9735408,-0.691009636,0.88819084,-25984.0,4348.5,-27516.5,
6.585,-0.1274125,0.13604665,9.157997,2.194438,-0.8961858,0.9120393,-16768.0,-20739.5,-20349.5,
6.699,0.8494218,2.3147702,7.92258836,1.7113416,-0.8404951,0.84355844,-2176.0,19452.5,-22397.5,
6.817,1.8214676,3.3299116,7.036734,0.7071779,-0.43760384,0.7159229,9344.0,4861.5,-30077.5,
6.937,2.6714092,4.8622008,6.962514,-0.5300074,0.21749414,0.5480515,13184.0,1277.5,29058.5,
7.052,2.7839368,4.182247,7.5778236,-1.6039845,0.8725922,0.3994987,8832.0,11773.5,-31357.5,
7.169,2.2380588,1.9029674,8.257777,-2.338355,1.4276335,0.29344664,-3200.0,-29699.5,-24701.5,
7.286,1.196581,-1.2573788,8.54987,-2.4304178,1.582315,0.2813226,-21120.0,5372.5,-26748.5,
7.400,0.80872035,-3.73298332,7.664015,-1.9193428,0.9657208,0.37271924,22144.0,-23043.5,22659.5,
7.519,0.70337544,-5.866217,7.4413544,-0.81339024,-1.2130097,0.66422916,8320.0,-4611.5,3459.5,
7.641,1.75443,-6.8095332,8.109336,0.789648,-2.0846084,0.9165691,9856.0,-6403.5,-4732.5,
7.754,4.0289216,-5.878188,9.090959,2.2078946,-1.80029316,1.0777789,19584.0,-19203.5,7811.5,
7.871,5.551634,-2.8734648,9.823585,2.699651,-1.0292839,1.089903,31872.0,18172.5,32387.5,
7.986,5.685709,1.0314782,10.458048,1.90865716,-0.07961152,0.924563,-27264.0,-12035.5,-19069.5,
8.102,4.5269156,3.4951116,11.319961,0.81642744,0.9535968,0.7427023,-31360.0,-32003.5,-12925.5,
8.223,2.0441284,3.4831408,11.221799,-0.1220534,1.73966116,0.5969474,16000.0,22524.5,-12925.5,
8.341,-0.74990492,2.5350368,10.697469,-0.7433106,1.97774532,0.5182077,-7296.0,20987.5,-14461.5,
8.458,-2.150513,1.3331475,10.041457,-0.969937,1.5943058,0.48996268,-29568.0,25339.5,-24189.5,
8.573,-3.6732254,0.27012192,8.580994,-0.9073183,0.758413,0.55258136,21632.0,-32516.5,29826.5,
8.689,-3.2997298,-0.52235884,6.986456,-0.64938268,-0.2664017,0.61146956,14720.0,-26116.5,22402.5,
8.804,-1.1641018,-0.83599928,6.574653,-0.39837496,-0.92269868,0.6498401,13440.0,-25860.5,23170.5,
8.926,0.24129456,-0.8790949,5.863575,-0.021064088,-1.1661123,0.70353232,20096.0,-29444.5,30594.5,
9.042,0.4424075,-0.51517624,7.92258836,0.31081492,-0.86860684,0.73204384,-31360.0,28667.5,-24701.5,
9.165,0.6507031,0.12168144,10.5801528,0.3226725,-0.54352268,0.7201863,-19072.0,21499.5,-18557.5,
9.282,0.6339436,1.0386608,12.284824,0.15959746,-0.16581214,0.68274824,-14464.0,16635.5,-16253.5,
9.399,1.2827723,2.0250718,13.197015,-0.070626132,0.27371772,0.6483746,-14720.0,11259.5,-17277.5,
9.522,1.5341635,1.5222895,12.529033,-0.34095228,0.6675493,0.60667324,-19840.0,7163.5,-19069.5,
9.639,0.7392885,0.16238287,11.183492,-0.4660564,1.0604482,0.5796273,-26752.0,5371.5,-23677.5,
9.755,-0.75229912,-0.39067772,10.101312,-0.34121876,1.1395875,0.585223,29568.0,7419.5,-30845.5,
9.871,-2.2127624,-0.6540399,9.64402,-0.09114374,0.71218176,0.6182644,19584.0,8443.5,25218.5,
9.984,-4.6476656,0.9428926,9.536281,0.07686086,0.02630732,0.6502399,12928.0,4347.5,20098.5,
10.104,-2.7945532,0.44011028,9.497973,0.034360096,-0.7197876,0.65503616,14208.0,-4868.5,20609.5,
10.220,-1.3604264,0.97162308,10.036669,-0.168950752,-1.198754,0.6459764,24192.0,-13060.5,27521.5,
10.337,0.67464504,1.1176694,10.704651,-0.41223104,-1.1525227,0.6121357,-22656.0,-16900.5,-27774.5,
10.454,2.872522,1.2206199,11.386998,-0.5603841,-0.52700204,0.59681416,-7040.0,-13572.5,-19838.5,
10.571,3.7224638,-0.37870672,11.827532,-0.484842,0.376172536,0.55671156,-640.0,-7172.5,-15742.5,
10.695,2.8557628,-1.3962424,10.781265,-0.0974056,1.3117223,0.57043432,-7296.0,-1284.5,-17790.5,
10.812,0.1407381,-1.94930284,8.95449,0.38342596,1.7620438,0.60414184,-22912.0,-2820.5,-25214.5,
10.928,-2.0882638,-1.2932918,6.9936384,0.9110217,1.4466856,0.66795964,24448.0,-13316.5,25473.5,
11.045,-2.4306344,-0.61812684,6.6033836,1.070233,0.48382336,0.7108601,13952.0,31483.5,5249.5,
11.161,-4.34839,2.3506832,6.4070588,0.6586817,-0.6882118,0.66809284,19072.0,12795.5,-4222.5,
11.276,-3.58703432,3.760868,6.73745836,-0.2301039,-1.5631414,0.57776208,-31616.0,1275.5,-1406.5,
11.400,-1.2000148,3.61961,7.400653,-1.2820978,-1.94817968,0.45385704,-10624.0,7675.5,17537.5,
11.518,0.7416827,1.5653851,7.580218,-1.97623252,-1.5434232,0.3232904,7552.0,25596.5,-28798.5,
11.634,1.72330544,-1.3866656,7.5754296,-1.9991484,-0.13623479,0.22962884,22400.0,-14851.5,-16510.5,
11.753,1.7999198,-3.6803108,8.461284,-1.0606675,1.2497698,0.24988,21888.0,13820.5,-11389.5,
11.869,-0.9198933,-4.6092616,9.191516,0.204629632,1.6090944,0.3679229,4736.0,27644.5,-13437.5,
11.991,-3.82645416,-3.66355132,9.045469,1.3497521,1.1992751,0.48410052,-21120.0,20987.5,-20861.5,
12.110,-5.8854676,-0.4553212,8.798866,1.9029282,0.12476521,0.57936084,-31616.0,-6148.5,-29310.5,
12.226,-4.2214976,2.063379,8.9161824,1.4980384,-0.6638305,0.48543284,-25728.0,29435.5,28033.5,
12.341,-2.9094748,4.2373136,9.201093,0.33492976,-0.7051321,0.28771768,-10368.0,12795.5,23681.5,
12.457,-1.592664,4.062537,10.118072,-0.8993245,-0.4455977,0.09493207,-1408.0,13563.5,25729.5,
12.571,-1.0180554,2.0968978,10.640008,-1.5802693,-0.3355487,-0.011919388,-896.0,26363.5,-30590.5,
12.694,-0.51287896,-0.8934601,10.6998624,-1.6167747,-0.2100449,-0.03137115,640.0,-17411.5,-18302.5,
12.811,-0.20163274,-3.313998,9.983996,-0.8684148,-0.023121468,0.025918282,1920.0,2812.5,-14205.5,
12.927,-0.833702,-4.1112676,9.260947,0.2833693,0.07133948,0.15355382,3200.0,12284.5,-13181.5,
13.041,-1.54478,-3.112885,7.67838,1.4567368,-0.19245838,0.28025672,3456.0,5884.5,-13437.5,
13.155,-1.1281888,-0.6324921,8.19074,1.98766332,-0.434806,0.337546136,7296.0,-13827.5,-18046.5,
13.277,0.1574975,2.3291354,8.451707,1.5777108,-0.413622268,0.28798416,16256.0,21756.5,-31614.5,
13.394,0.5597234,5.16387,9.2106696,0.5325117,-0.2606728,0.15115564,23936.0,1276.5,21633.5,
13.508,0.779989936,4.6754528,9.928929,-0.6118114,0.07946658,0.008598224,30080.0,-5891.5,18048.5,
13.624,0.473532136,2.3746252,10.290454,-1.4652908,0.4619735,-0.10185048,29824.0,4348.5,26497.5,
13.741,0.483108936,0.236603108,10.963224,-1.7879768,0.7452231,-0.14781526,20352.0,27900.5,-25470.5,
13.866,0.047364236,-2.76812,11.439671,-1.4402434,0.9062997,-0.116372668,6272.0,-8707.5,-16510.5,
13.982,-1.2287452,-3.5318704,10.668738,-0.64618504,0.7426917,-0.02404343,-9088.0,9979.5,-17789.5,
14.098,-2.2606464,-3.76650216,9.46206,0.39848108,0.3120883,0.096131144,-20608.0,14331.5,-21117.5,
14.215,-2.4857014,-2.5933432,7.891464,1.4624658,-0.36472636,0.23122762,-23424.0,3323.5,-23933.5,
14.331,-1.7195568,-0.4433502,7.860339,2.0127108,-1.0081,0.31236548,-14976.0,-20996.5,-24958.5,
14.452,-0.2183922,1.87423716,8.36791,1.6910906,-1.2429868,0.27399486,4992.0,14076.5,31105.5,
14.568,0.83266232,5.056131,9.256159,0.6420278,-1.0230219,0.13863191,24704.0,-4611.5,18560.5,
14.684,1.9459662,5.934803,10.412559,-0.6706996,-0.45692236,-0.030704994,-28544.0,-7427.5,13440.5,
14.801,2.0680704,4.0433836,11.255318,-1.7541362,0.23441452,-0.17219658,-27008.0,5884.5,25729.5,
14.918,1.9579372,0.6340406,10.90337,-2.123986,0.85167484,-0.24387496,29312.0,31996.5,-23934.5,
15.033,0.82787392,-3.9987396,10.917735,-1.4092004,1.2846763,-0.1642027,13696.0,-4867.5,-14974.5,
15.156,-0.845673,-5.590884,10.091735,0.19796806,1.4208387,0.014460399,-10112.0,10491.5,-16253.5,
15.273,-1.688432,-4.223795,9.632049,1.5818409,1.111609,0.16594432,-28544.0,1531.5,-24957.5,
15.387,-2.0140436,-0.71868332,9.076593,2.172988,0.6354405,0.23562426,28032.0,-22532.5,27009.5,
15.503,-1.6501248,1.9269094,7.795696,1.89999716,0.21562892,0.21683864,28288.0,14843.5,9089.5,
15.620,-1.4753482,4.292381,6.2729836,0.88330952,-0.23709084,0.09213421,-31872.0,-2820.5,-8575.5,
15.742,-1.1641018,4.5389832,5.4733204,-0.5021621,-0.5760311,-0.06574481,-24704.0,-7172.5,-12159.5,
15.858,-1.307754,3.212596,6.256224,-1.6483505,-0.79932664,-0.200308368,-22912.0,1275.5,897.5,
15.974,-1.3747916,1.2230141,7.5179688,-2.2389646,-1.0338137,-0.2657249,-19328.0,23035.5,24961.5,
16.091,-1.0659397,-1.5853844,8.54987,-1.9717026,-1.1622486,-0.23015218,-14208.0,-11524.5,-21886.5,
16.208,0.06172943,-5.854246,9.780489,-0.8399033,-1.0423405,-0.046293048,-3456.0,14587.5,-14461.5,
16.329,2.1518676,-6.146339,11.269683,0.706245236,-0.41908472,0.06082487,7296.0,21244.5,-13181.5,
16.447,2.6522556,-3.6922818,11.461219,1.83031716,0.72363968,0.170474168,13184.0,5628.5,-13181.5,
16.568,0.952372432,0.67234784,10.6280368,2.12689,1.88621532,0.16594432,5504.0,-22275.5,-20862.5,
16.687,-4.056298,5.5996148,8.858722,1.2166541,2.5085384,0.0050009796,-14208.0,15611.5,22401.5,
16.803,-7.424939,5.070496,6.861957,-0.6842892,2.877056,-0.25573256,29824.0,8699.5,-5758.5,
16.917,-7.523102,2.408144,-0.378108736,-2.8119922,2.5381158,-0.54804192,11136.0,19195.5,-25982.5,
17.040,-4.2909292,-5.768055,-4.879208,-2.7356508,1.1426518,-0.5080725,-5760.0,-22021.5,31105.5,
17.155,-4.8894796,-2.5741896,1.1876992,-0.818986,-0.52886724,-0.191115408,-12928.0,-8965.5,32385.5,
17.272,-7.89899136,0.6124928,1.7263946,-0.040249392,-1.9231322,-0.016582482,-12416.0,-4869.5,-22398.5,
17.390,-7.78407,-1.88226532,4.1110196,0.5658195,-3.5838596,0.046169432,-1152.0,-4613.5,5249.5,
17.506,-5.8998328,-0.414619736,9.31362,1.0545117,-3.7068322,0.174471108,-30080.0,-11268.5,-26238.5,
17.631,1.4072708,3.2796336,13.213775,1.2155882,-2.588489,0.24548338,19328.0,-27139.5,-19838.5,
17.748,5.1063124,4.8933252,12.265671,0.44857604,-1.8667754,0.166344,-9344.0,23292.5,31105.5,
17.864,5.2140512,3.0138772,9.543463,-0.5906277,-0.61093768,0.012062238,11392.0,20477.5,20097.5,
17.980,2.3290384,0.44250448,7.508392,-1.1402066,0.6361067,-0.09678768,14976.0,29693.5,21633.5,
18.095,1.3737519,-0.491234168,7.9441368,-1.0486766,1.2991986,-0.10544772,4736.0,-22530.5,-31870.5,
18.219,1.802314,-2.210271,11.990337,-0.32816212,2.0813992,-0.035501316,-16512.0,-9731.5,-18814.5,
18.335,-1.3340902,-2.9405024,14.518614,0.37116868,2.455246,0.026717674,19072.0,-8451.5,-14974.5,
18.452,-3.7953296,-6.5437764,13.25687,0.7748593,1.866897,0.03497801,-10880.0,-15876.5,-22910.5,
18.570,-6.000389,0.392226216,10.058216,1.0613065,0.40814804,0.15248795,-28288.0,-29444.5,27009.5,
18.688,-3.2877588,1.4360981,6.411847,0.92194664,-1.1109546,0.1731388,-28032.0,21755.5,19073.5,
18.804,-0.9031338,1.1440055,4.9849032,0.39288536,-2.0871398,0.12717402,-13696.0,12539.5,22145.5,
18.927,0.90209424,1.3642721,7.0989832,-0.16388799,-1.9231322,0.05003314,11136.0,7932.5,27521.5,
19.044,4.2851016,2.6930542,10.987166,-0.55825248,-1.1136192,-0.005657519,31360.0,12028.5,30593.5,
19.161,5.4845964,0.698684036,12.133989,-0.74810696,0.0057897084,-0.08493011,-23936.0,20476.5,-31870.5,
19.279,3.894846,-0.28293866,12.141172,-0.6368589,1.064978,-0.10251664,-27776.0,31484.5,-25470.5,
19.398,0.38255244,-1.1496396,10.606488,-0.30657864,1.71527968,-0.08399749,21888.0,-25859.5,-20862.5,
19.522,-2.1840318,-0.9293731,8.233835,0.24273376,1.353024,-0.015516631,-1664.0,-23812.5,-22398.5,
19.637,-4.2334684,-0.40743716,7.6376784,0.5113279,0.33873456,0.0291158368,-16000.0,-27908.5,-29310.5,
19.755,-3.63012984,0.401803016,8.753377,0.6165806,-0.6024109,0.085872344,-17536.0,29691.5,31361.5,
19.873,-2.3061362,0.89500856,9.790066,0.51439224,-1.1594508,0.09133483,-8320.0,21243.5,31105.5,
19.989,-0.04122126,1.3594837,10.280877,0.30681798,-1.2896176,0.0717498336,6016.0,14844.5,31105.5,
20.113,1.409665,1.98915884,10.491567,0.04621768,-0.9966422,-0.04123026,22144.0,10748.5,31361.5,
20.229,3.1957396,1.3451185,9.241794,-0.37079608,0.037232284,-0.05188876,31104.0,12796.5,30849.5,
20.345,1.9268126,1.076968,9.114901,-0.69987732,0.8888464,-0.112642208,28288.0,18428.5,-30078.5,
20.461,-0.19923854,0.169565468,9.325591,-0.81125852,1.263226,-0.13262689,13952.0,29692.5,-24190.5,
20.584,-2.2031854,-0.83121084,9.754153,-0.59755564,0.92295352,-0.09758707,-1920.0,-25604.5,-21886.5,
20.707,-2.8424372,-1.271744,10.484385,-0.16508709,0.346994932,-0.022844348,-14720.0,-18180.5,-24190.5,
20.825,-2.4785188,-1.4082134,10.216234,0.30628504,-0.16114904,0.042971888,-18560.0,-17668.5,-25982.5,
20.943,-1.3987336,-0.6396747,9.316014,0.7030477,-0.5741659,0.10692287,-15232.0,-23300.5,-27262.5,
21.058,-0.72596296,0.9093738,8.106942,0.8421411,-0.7392394,0.13276974,-7040.0,32507.5,-27774.5,
21.173,0.19101632,1.2254083,7.12292536,0.6596143,-0.7444354,0.10692287,4224.0,20732.5,-30334.5,
21.295,0.8709696,1.9532456,7.8483688,0.16119623,-0.45892084,0.035644168,14720.0,12796.5,31361.5,
21.412,1.2731955,2.0585906,8.978432,-0.380388732,-0.048568636,-0.03696686,19840.0,13052.5,32129.5,
21.530,1.2300999,1.6108749,10.352703,-0.8091269,0.3796366,-0.10171724,19328.0,18684.5,-30078.5,
21.646,0.7440769,1.1894953,11.073358,-1.0063092,0.7201756,-0.14022108,11904.0,29948.5,-24190.5,
21.762,-0.26627618,-0.110556132,10.91534,-0.9427579,0.870194,-0.13209396,2432.0,-20995.5,-20094.5,
21.877,-1.3053598,-0.6468573,10.1061,-0.67243165,0.7853257,-0.09865293,-9344.0,-8196.5,-19838.5,
21.999,-2.9022922,-0.9006427,8.885057,-0.2977854,0.406416068,-0.002726432,-19328.0,1531.5,-21885.5,
22.115,-2.8328604,-1.3100512,8.303267,0.19490374,-0.21537412,0.04377127,-22656.0,4347.5,-24445.5,
22.231,-2.8903212,-1.7242482,8.418188,0.82868472,-0.97159464,0.14849102,-19072.0,507.5,-22397.5,
22.348,-2.1409362,-1.0490832,9.58177,1.424095,-1.5761981,0.24042056,-3200.0,-13060.5,-19070.5,
22.464,-0.15135449,0.387437832,10.606488,1.6151488,-1.69597292,0.272929,19072.0,32508.5,-23166.5,
22.588,2.0728588,1.9556398,11.092511,1.258089,-1.1170832,0.22949562,-22912.0,11516.5,27009.5,
22.706,3.8014724,3.926068,11.243346,0.52638304,-0.063890224,0.10678965,-10112.0,-259.5,12160.5,
22.823,3.631484,3.997894,10.877033,-0.34921264,1.0555186,-0.022444654,-11392.0,-4355.5,8064.5,
22.940,1.7592184,2.7816396,10.089341,-1.1571269,1.8319904,-0.14088723,-25728.0,-771.5,18048.5,
23.058,-0.814548436,1.1703417,8.877875,-1.629032,2.085396,-0.19724406,18304.0,13564.5,31873.5,
23.180,-2.9669358,-0.33082268,7.747812,-1.6013198,1.715413,-0.192048032,-9088.0,-30212.5,-26750.5,
23.297,-3.8144832,-1.3292048,7.177992,-1.0569371,0.7496197,-0.08639565,-27264.0,-10500.5,-29310.5,
23.412,-3.94616416,-2.0738016,7.407835,-0.37572564,-0.2901169,0.029515528,31104.0,3067.5,-32637.5,
23.529,-3.314095,-2.3132216,8.209893,0.29043056,-1.1557204,0.13063804,-31616.0,8443.5,-28797.5,
23.645,-2.3492318,-1.3483584,9.0119508,0.81029884,-1.7068978,0.209111232,-19072.0,3067.5,-21885.5,
23.763,-0.62301224,-0.0363358768,9.366292,1.0914167,-1.7487326,0.25654156,3968.0,-12035.5,-18046.5,
23.887,1.4767027,1.3283591,9.067017,1.0096128,-1.2359254,0.24508368,30848.0,-31235.5,-22654.5,
24.004,3.011386,1.79522852,8.56184,0.43498648,-0.278659,0.14595963,-16512.0,22268.5,-31102.5,
24.119,2.9228004,1.80480532,9.737393,-0.113659816,0.733498736,0.06055841,-12160.0,18940.5,31873.5,
24.238,1.4551549,1.3115997,11.164338,-0.44807024,1.4314972,0.0027360496,-21120.0,23036.5,-28542.5,
24.357,-1.4466176,0.385043616,11.841897,-0.5016291,1.553004,-0.003259357,23680.0,30972.5,-23422.5,
24.479,-4.3412076,-0.36912992,11.30799,-0.32789564,1.1303946,0.038841712,4736.0,-27139.5,-23422.5,
24.596,-5.162419,-0.6372805,10.230599,0.073396856,0.25120166,0.11691522,-10112.0,-23812.5,-26238.5,
24.713,-3.7091384,0.114498824,9.069411,0.47655456,-0.6561031,0.19991828,-10880.0,-27652.5,-29310.5,
24.830,-2.0523508,1.2876577,8.145249,0.6276388,-1.0376774,0.25827356,-640.0,29947.5,-28798.5,
24.946,-1.4346466,2.2381558,7.7214755,0.5790094,-0.67235732,0.31063344,12928.0,21244.5,-30334.5,
25.070,-1.0180554,2.6619296,8.320026,0.2910967,-0.21404182,0.337146468,23936.0,13052.5,30081.5,
25.187,-1.0324206,2.633199,9.474031,-0.09167667,-0.043505848,0.3248892,29056.0,10236.5,27009.5,
25.302,-1.2407162,1.9173326,10.295242,-0.35987116,0.061213904,0.31796116,31360.0,11260.5,28801.5,
25.420,-1.1760728,0.722626036,10.268907,-0.5554546,0.08026597,0.3043716,-32384.0,16892.5,31873.5,
25.536,-0.8744034,-0.28772706,9.416571,-0.55105792,0.024575316,0.31116638,-32128.0,24316.5,-28542.5,
25.658,-0.417110836,-0.3451879,8.406218,-0.3461483,-0.03564521,0.3432751,-30848.0,32252.5,-23934.5,
25.773,-0.27585304,0.8567014,8.233835,-0.210252452,0.04042983,0.3867085,-28800.0,-28419.5,-23678.5,
25.889,0.3155148,0.6172812,9.390234,-0.21971188,0.25679736,0.34260896,-28544.0,-25091.5,-20606.5,
26.004,0.2676308,0.689107236,10.809996,-0.24062918,0.4595753,0.34487388,-30336.0,-21507.5,-19326.5,
26.121,-0.32852542,0.37307262,11.485161,-0.16175629,0.5333854,0.353267468,29568.0,-17923.5,-17534.5,
26.247,-0.9246817,0.08576841,10.896187,-0.061166704,0.4539796,0.367389984,23936.0,-16131.5,-16254.5,
26.364,-0.61104124,-1.1735816,9.440513,0.0025178344,0.25959522,0.4076258,19584.0,-15875.5,-15998.5,
26.481,-1.6932204,0.29406396,7.1732036,0.06260512,-0.116516576,0.3969673,18560.0,-16131.5,-15998.5,
26.600,-1.3101482,0.2198437,7.1947512,0.04515183,-0.70633128,0.40482796,23168.0,-17923.5,-17790.5,
26.716,-1.2167742,0.03549017,8.858722,0.12389149,-1.0771139,0.42454616,-31360.0,-18947.5,-18814.5,
26.838,0.1503149,0.15041184,10.951254,0.19050712,-1.1122868,0.437602832,-13952.0,-20227.5,-23422.5,
26.955,1.7616126,1.3451185,12.3159484,0.15786546,-0.7407049,0.40096424,1152.0,-20738.5,-29310.5,
27.074,2.60916,1.3068113,12.368621,0.061139584,-0.055496656,0.38004692,11904.0,-19714.5,29313.5,
27.190,2.4559312,1.8886022,11.042233,-0.1439033,0.796783536,0.33008522,11904.0,-16642.5,31617.5,
27.309,1.5964126,1.73776768,9.842738,-0.47245156,1.5608647,0.2648019,1920.0,-11522.5,-26750.5,
27.426,-0.18247914,1.0458434,9.378263,-0.5924929,1.8213318,0.23695656,-19584.0,-3075.5,-16766.5,
27.549,-2.8831386,0.5310899,9.196304,-0.31936884,1.3932598,0.2785247,19584.0,4348.5,-11645.5,
27.664,-5.069045,-0.9437383,8.411006,0.11176745,0.418673332,0.365924432,3200.0,6652.5,-12157.5,
27.782,-5.6197116,-1.3938482,7.5155748,0.6422942,-1.0411414,0.45998568,1152.0,-259.5,-13950.5,
27.899,-3.752234,-0.39546616,7.2713656,1.1255239,-2.2556774,0.5468524,20608.0,-14595.5,-14974.5,
28.015,-0.9845367,1.5845387,7.738235,1.2600875,-2.5497186,0.57882784,-11136.0,32764.5,-26750.5,
28.137,2.4104414,4.3474476,7.6975336,0.977504,-1.69557332,0.54285544,24960.0,19197.5,11649.5,
28.254,5.884428,6.765591,7.2833368,0.15253622,-0.036711052,0.41468704,-22912.0,16637.5,-9598.5,
28.370,5.894005,6.87333,8.1524312,-0.88586816,1.6302782,0.22083558,-22400.0,22269.5,-8318.5,
28.485,3.0042034,5.1686584,9.323196,-1.7228268,2.860802,0.070284284,25216.0,-29186.5,18305.5,
28.601,-1.8153248,2.0059182,9.732605,-1.84513316,3.0166824,0.02884937,-11136.0,-4867.5,-19070.5,
28.718,-6.5845748,-1.7649496,8.762954,-1.4259876,1.8357208,0.10732257,11392.0,23292.5,-9597.5,
28.841,-10.149541,-4.1208444,8.396641,-0.50069652,-0.45519036,0.2706641,-7552.0,-25604.5,-15741.5,
28.957,-7.3579016,-7.266825,8.473255,0.8757154,-2.4527264,0.4729091,2432.0,-26115.5,-14717.5,
29.072,-2.5264028,-3.1272502,7.652044,2.1514046,-3.46355168,0.6734221,-29312.0,19964.5,-14205.5,
29.189,2.7001398,1.4265213,6.25383,2.3834932,-3.0889056,0.68061656,16512.0,-8962.5,30593.5,
29.305,3.844568,2.9205034,4.273825,1.83178268,-1.768584,0.6057406,-15488.0,-28674.5,-12414.5,
29.426,6.025686,5.5014524,1.4486672,1.4376848,0.21269782,0.5611081,7040.0,28670.5,22145.5,
29.542,7.610647,6.703342,2.372829,0.8898379,1.89873908,0.46038536,8064.0,28158.5,20865.5,
29.658,7.986537,7.890866,3.79259068,-0.14137189,3.0566518,0.26706684,-7296.0,28925.5,-19582.5,
29.775,4.0624404,8.206901,10.642402,-1.1424714,3.2879412,0.07721231,28032.0,-31234.5,18561.5,
29.892,-1.6620958,7.2683736,10.798025,-1.6113123,1.7910882,-0.00698983136,-8576.0,-13571.5,-19838.5,
30.017,-5.1241116,3.3299116,10.908158,-2.249623,0.530854,-0.04109703,30592.0,20476.5,-9085.5,
30.131,-4.8751144,-1.010776,10.1061,-2.5547228,-0.39403724,-0.05415369,20352.0,-6147.5,-16253.5,
30.246,-5.952505,-4.2788616,9.847527,-1.863119,-1.1654462,0.0528309936,25472.0,29692.5,-32124.5,
30.365,-1.5663278,-3.7928384,8.523533,-0.39757556,-1.5619423,0.208445068,-28544.0,-15107.5,13699.5,
30.483,0.7488653,-2.504758,7.786119,0.7919129,-1.2476499,0.3363471,-19072.0,-11523.5,4739.5,
30.598,1.2779839,-1.7649496,7.249818,1.6981518,-0.7385732,0.44159976,-12416.0,-23299.5,7811.5,
30.720,0.68182768,-2.1599928,8.865904,2.3732344,-0.071084712,0.5040852,-7552.0,19452.5,22915.5,
30.836,2.9778672,0.5143305,5.96892,2.712308,0.5636289,0.50728276,-7040.0,-11267.5,-26493.5,
30.950,3.4926204,2.3099818,6.399876,2.0068486,1.0134176,0.402563,-12672.0,19964.5,-16765.5,
31.065,2.5421224,5.022612,7.424595,0.5723478,1.189416,0.21270848,-25216.0,-2563.5,-16254.5,
31.179,2.3170674,6.0497248,8.72704,-1.0348206,1.5264909,0.017524716,22912.0,-6915.5,-15230.5,
31.302,-1.4107046,4.3713892,10.072581,-2.3234334,1.5761862,-0.12449979,-128.0,11259.5,-12413.5,
31.420,-4.027567,-0.4816574,10.462836,-2.5781712,1.0858953,-0.14435124,-19584.0,-22532.5,-18813.5,
31.536,0.018633782,-9.095995,10.479596,-1.7757196,0.07866719,-0.15167896,-30336.0,12283.5,25731.5,
31.653,-5.868708,-5.9404372,9.110112,-0.14550204,-1.2954799,0.20151706,-29824.0,28923.5,13955.5,
31.769,-2.9070806,-3.66833968,9.3543216,1.2142559,-2.2520802,0.399898368,-19584.0,25339.5,23171.5,
31.895,1.2851665,-0.201535792,8.387064,1.8012728,-2.0375778,0.47131036,6016.0,764.5,-24444.5,
32.019,4.301861,3.200625,8.329603,1.2042636,-0.7224522,0.37178656,29824.0,-22787.5,-17021.5,
32.134,5.994561,5.6091916,9.921747,0.13987924,0.6105263,0.20498108,-24960.0,31740.5,-14461.5,
32.249,3.5261392,4.273227,10.6040944,-0.9338313,1.5504726,0.061491028,29824.0,-30211.5,-12413.5,
32.366,-0.07474005,1.98437036,10.101312,-1.5918604,2.0279734,-0.024709586,5504.0,-12547.5,-14461.5,
32.485,-2.0451682,-0.9197963,8.829991,-1.6468849,1.80188,-0.0185809484,-24960.0,6907.5,-30332.5,
32.607,-3.572669,-2.567007,7.2546068,-0.977930832,0.57522004,0.088004048,24960.0,19451.5,12675.5,
32.724,-4.408245,-3.4672268,7.7933016,-0.001878798,-0.7534951,0.24535014,23680.0,23547.5,1155.5,
32.839,-4.096999,-3.0386648,9.835556,0.892102864,-1.81281668,0.3739183,30592.0,21755.5,11395.5,
32.956,-1.8249016,-1.4920106,10.793237,1.4745898,-2.386377,0.460785068,-18560.0,11003.5,31875.5,
33.074,1.9292068,0.43292764,10.462836,1.5129603,-2.1999868,0.46038536,5248.0,-7683.5,-18813.5,
33.197,4.507762,2.6499584,8.504379,1.0856878,-1.0931016,0.4178846,32128.0,-30979.5,-16253.5,
33.312,4.3952348,2.3291354,6.9026584,0.5273157,0.2071021,0.32009286,-19072.0,20220.5,-19581.5,
33.428,3.9762492,2.8845902,5.9425836,-0.13764144,1.690099,0.21444048,-21632.0,13564.5,-16765.5,
33.545,3.0305396,3.0545786,7.96329,-0.9789967,3.0623808,0.0882705,21120.0,18172.5,-11389.5,
33.659,-0.07713425,1.8957848,9.897805,-1.5530901,3.4050516,0.013794242,-19584.0,-31492.5,-18813.5,
33.781,-5.6197116,-2.5286998,9.327985,-1.6271668,2.587678,0.041106644,7040.0,-10500.5,12418.5,
33.897,-10.18306,-1.5111642,9.021527,-1.3793566,0.58361364,0.12011277,-11392.0,-3333.5,-26237.5,
34.014,-8.322765,-2.1456276,7.249818,-0.97446668,-1.6901108,0.22030264,-10880.0,-3333.5,27266.5,
34.130,-3.764205,-2.0642248,6.7254877,-0.40663528,-3.4265136,0.3222246,640.0,-3076.5,-14461.5,
34.247,-0.31655444,-0.9245847,7.288125,0.3426572,-3.9828872,0.38910664,27776.0,-2308.5,21890.5,
34.363,4.196516,-1.87268852,7.891464,0.85213348,-3.1709762,0.490362368,1664.0,-8195.5,-20861.5,
34.486,6.9378768,-1.93493776,8.147643,1.0550446,-1.5492854,0.42454616,-26496.0,-17923.5,-17789.5,
34.604,6.1789144,-0.6588283,7.7933016,1.0900844,0.16726598,0.38018016,-11136.0,-28419.5,-20093.5,
34.721,4.15342,-0.043518484,7.144473,1.0429206,1.7194098,0.30370542,-16768.0,23548.5,-17789.5,
34.837,1.8597748,-0.1895648,6.682392,0.93606916,3.000828,0.213374632,20608.0,4860.5,-13181.5,
34.953,-0.9869309,-0.16083437,6.82365,0.431255936,3.5711908,0.037642636,-18560.0,-11524.5,-22142.5,
35.075,-12.043354,10.917137,6.205946,-0.193065632,2.5800836,0.02005611,13696.0,-20996.5,14209.5,
35.192,-10.635564,0.48560008,8.094971,-0.5141529,0.6035983,-0.123833632,-1920.0,-19717.5,-14462.5,
35.309,-9.668306,0.05224958,8.760559,-0.65924176,-1.6429468,-0.10717972,-2688.0,-12037.5,-13950.5,
35.425,-4.120941,-0.017182268,9.825979,-0.73878072,-3.1540558,-0.099319084,6784.0,-2308.5,11137.5,
35.541,1.0792651,1.8909964,8.226652,-0.6736307,-3.0869072,-0.03150438,-29568.0,7419.5,-24189.5,
35.663,6.3872104,-1.3699062,8.949701,-0.57703804,-1.4060618,-0.214031184,9088.0,15868.5,-12413.5,
35.782,6.8157725,-1.5375004,9.421359,-0.50189568,0.6542262,-0.29383668,24704.0,26620.5,-11645.5,
35.899,4.265948,-2.128868,9.91217,-0.24422644,2.170664,-0.323414,11648.0,-27651.5,-12157.5,
36.012,0.13355547,-2.5622186,8.9401248,0.021036968,2.7627436,-0.35645536,-14720.0,-22020.5,-17277.5,
36.129,-2.840043,-3.2637198,6.79491936,-0.097139132,2.3927608,-0.45411388,16256.0,-20996.5,26754.5,
36.252,-1.9182754,-3.6922818,4.8125204,-0.6315296,0.9837071,-0.5808168,-1920.0,-17669.5,2946.5,
36.369,-3.7570224,-4.1232384,4.563524,-0.2829967,-0.40802652,-0.5445779,-3456.0,-8453.5,-10109.5,
36.484,-3.2733936,-5.0066984,5.2051696,0.767664836,-1.4333742,-0.40508476,5504.0,-2564.5,-2941.5,
36.602,-2.6221708,-4.2788616,8.564235,2.1900416,-2.2648704,-0.22242476,19840.0,-6404.5,18818.5,
36.718,-0.029250264,-1.86550584,10.716622,2.447977,-2.106858,-0.212565632,-21120.0,-27908.5,-20605.5,
36.836,4.5245212,4.438427,12.246517,2.0737308,-1.274829,-0.27158708,7040.0,2812.5,-13949.5,
36.958,5.0751876,7.32822836,10.707046,0.7179696,0.06267945,-0.45398064,19328.0,-22531.5,-20862.5,
37.075,3.2939016,6.1957708,8.949701,-1.022963,1.2594956,-0.66941552,11648.0,-28931.5,-23166.5,
37.191,0.27241918,3.0641554,8.097365,-2.245493,1.8666304,-0.79825016,-10624.0,-10500.5,-19838.5,
37.307,-1.6118176,-0.493628384,7.63289,-2.3861852,1.68090584,-0.8183681,29312.0,23547.5,-25725.5,
37.425,-2.6700546,-3.2852676,7.8028784,-1.5227134,0.8314237,-0.68553656,14720.0,-9476.5,20098.5,
37.547,-3.541544,-5.2748492,9.921747,-0.193332092,-0.25254564,-0.510071,13440.0,9979.5,3971.5,
37.663,-3.1800196,-4.9468436,10.965619,0.933671,-1.0392761,-0.3680465,19584.0,13307.5,7043.5,
37.779,-1.1497366,-2.3970186,10.529874,1.7577062,-1.3281216,-0.273852,-32640.0,5371.5,24451.5,
37.895,1.0337753,0.6196754,8.952095,2.112501,-1.0649898,-0.22642168,-15488.0,-14596.5,-23165.5,
38.011,2.2141168,2.3937788,6.560288,1.7383876,-0.31796224,-0.27678308,-384.0,23035.5,-14717.5,
38.133,1.73527652,3.0258482,6.160456,0.70864344,0.59027516,-0.41667588,896.0,4604.5,-14461.5,
38.251,1.1127839,3.6004564,7.407835,-0.421823632,1.155975,-0.56522876,-10880.0,-516.5,-17790.5,
38.369,-0.66131944,3.1168278,9.421359,-1.4708865,1.1883501,-0.6847372,-29312.0,10491.5,-22653.5,
38.486,-3.58703432,1.4720111,11.221799,-2.017934,0.6163885,-0.7288367,21632.0,-32260.5,-31613.5,
38.602,-4.7410392,-1.7505844,11.772465,-1.836473,-0.2621383,-0.676343536,17792.0,-4868.5,21890.5,
38.719,-3.66364868,-4.298015,11.303202,-1.0386844,-1.1742394,-0.56922568,27008.0,17915.5,12163.5,
38.842,-1.532809,-4.6308092,10.051034,0.28350252,-1.73261152,-0.41281216,-22144.0,29179.5,12419.5,
38.960,1.5006447,-2.6436214,9.177151,1.4288914,-1.5496851,-0.27052122,640.0,24572.5,25475.5,
39.078,3.511774,-0.39546616,7.8483688,1.90865716,-0.65343844,-0.23268356,19072.0,6908.5,-27004.5,
39.195,3.54289868,1.5486257,6.9026584,1.719069,0.6540929,-0.28810772,26496.0,-17923.5,-16253.5,
39.313,3.2292584,2.9324744,7.144473,0.99442448,1.77550032,-0.37204344,16256.0,23548.5,-10365.5,
39.436,1.0241985,3.6962248,8.025539,-0.12431832,2.3234804,-0.5197969,-7552.0,11771.5,-14973.5,
39.552,-3.065098,2.903744,8.619301,-1.1259508,1.8643654,-0.6554263,28288.0,17403.5,-28797.5,
39.667,-6.5845748,1.2493506,8.973643,-1.5761391,0.58814348,-0.62451668,11392.0,-29444.5,20866.5,
39.784,-7.2980468,-1.3292048,9.287284,-1.3256644,-1.1325381,-0.53498524,9856.0,-7684.5,11906.5,
39.900,-4.226286,-2.8662822,9.339956,-0.705073236,-2.489365,-0.43825932,22912.0,12539.5,16771.5,
40.036,0.6195784,-2.0594364,8.853933,0.2651166,-2.8686742,-0.2965013,-10880.0,23803.5,28035.5,
40.151,4.8932284,-1.7673438,7.498815,0.9961564,-1.9461812,-0.24880454,20096.0,18428.5,-32636.5,
40.267,5.884428,-0.7833268,7.08701236,1.2438333,-0.38417816,-0.25320116,-21376.0,3068.5,-28540.5,
40.384,5.6450076,0.42095664,7.63528436,1.0994106,1.1169382,-0.3034293,-17024.0,-15107.5,-22909.5,
40.502,3.82302032,1.2469564,8.274536,0.7286281,2.25873,-0.37817208,-32128.0,-30979.5,-12925.5,
40.617,1.991456,0.8351535,8.559446,-0.6441866,2.2033058,-0.5684263,5248.0,27132.5,-10877.5,
40.738,-0.74751068,0.028307564,8.904211,-2.1343782,1.095488,-0.7392287,-23168.0,-17668.5,-20605.5,
40.853,-1.8512378,-2.5167288,9.141237,-1.8910978,0.36817868,-0.6880679,30592.0,13051.5,27011.5,
40.969,-2.2869826,-5.0474,9.71824,-0.74637496,-0.382845832,-0.5401813,31616.0,32251.5,9091.5,
41.085,-1.9565826,-6.5916604,10.268907,0.81629424,-0.9349561,-0.35605568,-23424.0,-27908.5,8323.5,
41.202,-0.905528,-4.9923332,10.51072,2.4033446,-1.1569194,-0.175127668,-8576.0,27131.5,23427.5,
41.324,-0.1130473,-0.13689235,10.826756,2.931873,-1.1555871,-0.12090254,7808.0,-3587.5,-18045.5,
41.440,1.4312128,5.412867,9.574588,2.0088472,-0.8126497,-0.2320174,20608.0,20732.5,-11645.5,
41.554,3.0305396,8.051277,7.6855624,-0.04771036,-0.2681337,-0.49341704,31104.0,-6659.5,-16510.5,
41.669,3.8254144,6.102397,5.954555,-2.2408296,0.2918372,-0.7586805,-30336.0,-771.5,-15486.5,
41.784,3.832597,2.5661614,6.100601,-3.78045,0.6666167,-0.95013376,28544.0,-24835.5,-10621.5,
41.904,3.0999712,-2.3682882,7.4581132,-3.45296736,0.42733336,-0.8166361,18560.0,32252.5,30339.5,
42.021,2.393682,-8.516598,8.870692,-1.606649,-0.11371872,-0.50554116,21888.0,-3075.5,-5500.5,
42.136,3.2651712,-10.379287,10.034274,0.66787464,-0.03377997,-0.23441556,31104.0,3580.5,-26235.5,
42.253,2.393682,-6.9148776,9.835556,2.652354,0.366180184,-0.031237918,32128.0,-1283.5,-11132.5,
42.369,1.2971375,-1.1209092,8.664791,3.4464124,0.70045748,0.04656913,24960.0,-30723.5,22659.5,
42.485,0.5956364,3.3873724,6.574653,2.8097,0.5884099,-0.011652925,17792.0,-14595.5,-17277.5,
42.605,-0.18487334,5.714536,5.8827284,0.89996344,-0.218838168,-0.20164068,18048.0,13564.5,-10365.5,
42.723,0.06651783,5.202177,7.1396848,-0.6160748,-0.5512501,-0.35272488,19584.0,7676.5,-12157.5,
42.838,0.8613928,3.6674944,7.893858,-1.68552208,-0.4547907,-0.4641062,23168.0,15612.5,-11901.5,
42.954,1.3952998,1.2804751,8.408611,-2.2107196,-0.12944,-0.5217954,30336.0,-25347.5,-14973.5,
43.069,1.160668,-2.3443464,9.083776,-1.99275332,0.191647292,-0.50780608,-31360.0,9212.5,-24188.5,
43.192,0.049758436,-4.274073,9.395022,-0.9149124,0.33527058,-0.3936269,30336.0,-29955.5,23683.5,
43.306,-0.34767908,-5.4185016,9.811614,0.3802284,0.42306996,-0.2709209,29056.0,-25603.5,17539.5,
43.427,0.1527091,-4.1806992,9.323196,1.5293479,0.54537624,-0.1676667,30080.0,31740.5,24963.5,
43.543,0.8542102,-0.53432984,8.150038,2.2249482,0.7420256,-0.099052616,24960.0,13308.5,-25468.5,
43.658,0.5262046,1.8886022,6.4812792,1.890138,1.0928234,-0.142486,13184.0,-17411.5,-13437.5,
43.778,-2.4641536,6.3442116,9.416571,0.38342596,0.81716792,-0.29583514,640.0,18172.5,-11645.5,
43.896,-5.3012824,6.346606,12.682261,-0.99018808,-0.2406881,-0.4379929,-3968.0,17147.5,-13181.5,
44.011,-5.9237748,2.5924976,13.944006,-1.6407564,-1.2576422,-0.45184896,-640.0,-27140.5,-11645.5,
44.129,-2.2893768,-2.0331002,12.679868,-1.6543459,-2.0135964,-0.43359624,14208.0,-4611.5,-17789.5,
44.246,0.5525408,-2.5334882,9.62726,-0.8199186,-2.1000634,-0.39389332,-19584.0,17148.5,32131.5,
44.361,2.6019774,-1.5710192,7.0510992,0.37836316,-1.2583084,-0.23894542,4992.0,26109.5,14979.5,
44.484,3.274748,-0.10337353,6.6847864,0.896899136,-0.27293004,-0.19098218,14208.0,19197.5,8579.5,
44.602,3.60514784,1.3666663,7.371922,0.7949773,0.6413027,-0.226954608,18304.0,2301.5,14467.5,
44.722,2.7432354,2.3626542,8.703098,0.40527588,1.426168,-0.27918124,13440.0,-5890.5,25474.5,
44.839,1.1199665,2.6834774,10.0151208,-0.04171495,1.8587698,-0.33114144,-8832.0,-10755.5,-26237.5,
44.957,-0.70441512,0.389832032,10.410164,-0.3914469,1.6991588,-0.3659148,-30080.0,-14595.5,-17789.5,
45.080,-2.662872,-0.0076054632,10.16835,-0.4545985,0.9507989,-0.33154112,17536.0,-6147.5,-15485.5,
45.195,-3.194385,-1.6500278,9.857103,-0.11552505,0.032435956,-0.28078002,4992.0,1020.5,-18556.5,
45.312,-2.7466692,-2.5694012,9.904987,0.5297138,-0.770948336,-0.18485356,8064.0,-1283.5,-19325.5,
45.429,-1.6692784,-0.8934601,9.588953,1.0230692,-1.2797586,-0.1296958,22656.0,-9987.5,-15741.5,
45.544,-0.25430518,0.674742036,9.203486,1.0836893,-1.4761413,-0.121701928,-24448.0,-22019.5,-16253.5,
45.669,1.6610563,3.0066946,8.157221,0.6869267,-1.2415211,-0.16167131,-5504.0,26876.5,-22653.5,
45.786,2.8533686,3.3179408,7.958502,-0.224241744,-0.5496513,-0.2742517,9088.0,14589.5,-31869.5,
45.903,3.3657276,2.9492338,9.758942,-1.0421485,0.2437407,-0.3817693,16768.0,15357.5,30594.5,
46.019,2.6259194,1.1296404,10.276089,-1.334058,0.94240536,-0.417208832,13696.0,28413.5,-31869.5,
46.137,1.0337753,-1.130486,10.6759208,-1.0005802,1.322514,-0.384167468,1920.0,-19458.5,-25725.5,
46.255,-0.18247914,-2.5334882,10.896187,0.00358368436,0.92721692,-0.2606621,-17024.0,-6147.5,-20605.5,
46.379,-1.0611513,-1.4369438,10.802814,1.4370186,-0.2854538,-0.06454573,-27264.0,-11267.5,-17277.5,
46.496,-0.64456004,2.1998486,10.051034,1.8345806,-0.96773096,0.0059335984,-21888.0,28156.5,-16509.5,
46.614,0.10721928,5.376954,8.298478,1.0531794,-1.3066713,-0.06694389,-5504.0,-1027.5,-23678.5,
46.730,1.2420709,6.2580204,7.592189,0.069000216,-1.3876758,-0.17219658,13952.0,-14338.5,28545.5,
46.847,2.7456296,6.4399796,6.998427,-0.28872568,-1.1646468,-0.22309092,31616.0,-14338.5,16257.5,
46.970,4.2635536,5.388925,7.958502,-0.07622181,-0.2445518,-0.22069274,-24960.0,-11522.5,5761.5,
47.085,5.0273036,4.938815,9.332773,-0.2113183,0.9559949,-0.25919658,-25984.0,-11010.5,5249.5,
47.200,2.932377,3.95001,10.316791,-0.11405952,1.50171,-0.2670572,25728.0,-12034.5,17025.5,
47.313,0.0042685868,4.141546,8.920971,0.189041568,1.1932798,-0.2585304,7808.0,-16130.5,30593.5,
47.429,-0.7906063,3.9787404,6.9792732,0.5166572,0.4361266,-0.2701215,-3456.0,-23043.5,-28542.5,
47.551,-0.74272232,3.8614244,6.385511,0.4644305,-0.3152976,-0.2909056,-6528.0,-27907.5,-29566.5,
47.666,0.9619492,3.023454,5.2769956,-0.0362524536,-0.5504507,-0.354323636,-6016.0,32764.5,31105.5,
47.783,1.1391202,3.5382072,5.5954248,-0.8231161,-0.47211076,-0.4355947,-3456.0,30460.5,29057.5,
47.899,2.6546498,3.131193,6.6632384,-1.5096568,-0.15262222,-0.4990128,640.0,-26114.5,-32638.5,
48.015,1.9507546,3.0521844,8.499591,-1.8327424,0.210299668,-0.52925632,384.0,-4610.5,-24190.5,
48.138,1.1415144,0.200690092,11.114059,-1.9886232,0.5588326,-0.54351204,-10112.0,26108.5,-18557.5,
48.256,-0.49133116,-2.9285314,11.312778,-1.6602081,0.64050332,-0.5215289,-21376.0,-15107.5,-18813.5,
48.373,-1.8608146,-6.266049,10.587335,-0.72639024,0.41241144,-0.44438796,-25984.0,2044.5,-24188.5,
48.491,-1.8225074,-5.90213,9.608107,0.7271626,-0.01312913,-0.28917356,-24448.0,7932.5,-25212.5,
48.605,-0.74272232,-3.1416154,9.186728,1.8876066,-0.33954568,-0.15993929,-20096.0,-3587.5,-21117.5,
48.722,0.21016994,-0.40743716,8.961672,2.311948,-0.37125468,-0.10757942,-14720.0,-29955.5,-16765.5,
48.843,1.1319375,2.0202834,9.007162,1.84617168,0.124232284,-0.16793316,-11392.0,-1027.5,-22142.5,
48.962,1.862169,4.8861428,11.30799,0.7811212,0.580416,-0.23694696,-13440.0,-29443.5,-30590.5,
49.076,-1.3484554,5.6211624,12.256094,-0.2804653,0.50913732,-0.3941598,-21376.0,24316.5,-32638.5,
49.194,-3.70195568,3.94282736,11.422912,-1.2248083,-0.18366511,-0.46250744,-26240.0,29436.5,-27006.5,
49.315,-3.7713876,-0.06985471,9.356715,-1.7987686,-1.3696896,-0.4990128,-23168.0,-14851.5,-20606.5,
49.437,-1.2814176,-3.2565372,9.160391,-1.2639784,-2.1380344,-0.425602368,-4992.0,12028.5,-20349.5,
49.554,2.1542618,-3.811992,9.361504,-0.050108508,-1.8691736,-0.27824864,18048.0,27389.5,30338.5,
49.669,4.6825384,-3.220624,9.033498,1.0162743,-0.98651656,-0.20377238,-29056.0,22269.5,11138.5,
49.785,4.984208,-1.070631,8.478044,1.5182896,0.360318,-0.18205568,-18816.0,5373.5,-637.5,
49.899,3.56684068,0.7800869,8.33918,1.4852483,1.6657177,-0.21203272,-22656.0,-13314.5,1665.5,
50.021,1.409665,2.4512398,8.660003,0.9886955,2.4734986,-0.2887739,27520.0,-29954.5,13697.5,
50.136,-1.0156612,3.0928858,9.05744,0.27084552,2.4227376,-0.36218432,-1152.0,23804.5,25985.5,
50.252,-3.5798516,3.1000684,8.528321,-0.507891,1.6835706,-0.4133451,-31616.0,22524.5,-32382.5,
50.366,-4.527955,2.3315296,8.0806056,-1.0669294,0.6155891,-0.4389255,9088.0,30460.5,-27262.5,
50.482,-3.7378688,0.8447303,7.39347,-1.3095435,-0.596149,-0.42546912,1152.0,-20739.5,-21118.5,
50.596,-2.1529072,-0.6779819,7.84358032,-1.1263505,-1.5551475,-0.3825687,8832.0,-2819.5,-14206.5,
50.720,-1.7075856,2.7960048,8.619301,-0.5226797,-1.86664208,-0.23747988,-32128.0,12540.5,-12669.5,
50.838,2.1494734,-3.1775284,10.209051,0.440448936,-1.532365,-0.2111001,-5248.0,18684.5,-19325.5,
50.955,3.6123304,-2.069013,11.245741,1.1312529,-0.6998029,-0.15767437,12928.0,12029.5,-29821.5,
51.072,3.3082668,0.2126611,11.154761,1.366406,0.16153702,-0.14888111,19584.0,-1794.5,28801.5,
51.188,1.8765342,2.5517962,9.756547,1.0968792,0.919489536,-0.19870959,14208.0,-20994.5,23937.5,
51.313,1.1774274,2.8654366,7.812455,0.12335857,1.3125217,-0.26465904,-384.0,28668.5,24449.5,
51.431,-1.427464,2.882196,7.345586,-0.9340978,1.0031588,-0.41867436,-16512.0,26364.5,31361.5,
51.545,-2.5718924,1.75931552,8.200316,-1.5977225,0.2867744,-0.46650436,-30592.0,-26883.5,-23422.5,
51.662,-3.1441066,-0.168016976,9.416571,-1.6422218,-0.6130694,-0.451582468,32384.0,-4355.5,-14718.5,
51.781,-1.7554698,-2.8830416,10.558604,-1.0075083,-1.205149,-0.36191784,-23680.0,18684.5,-13437.5,
51.904,1.5724707,-5.8710056,11.104483,0.117762856,-1.1706421,-0.2281537,-4992.0,-32515.5,-18557.5,
52.023,3.89963468,-4.3889948,10.302425,1.2980584,-0.4270786,-0.14435124,9088.0,29181.5,-27005.5,
52.140,3.8637216,-1.937332,8.774924,2.1604644,0.63730584,-0.082665176,11392.0,7933.5,-29821.5,
52.258,1.6466908,1.8287473,7.49402668,2.2337412,1.4175079,-0.097853532,2432.0,-23554.5,31361.5,
52.378,-1.6070292,4.471946,5.899488,1.5086969,1.622151,-0.18352124,-13952.0,8188.5,21889.5,
52.493,-3.409863,6.6650344,4.795761,0.3184091,1.1046809,-0.28983974,-30080.0,-9731.5,12160.5,
52.615,-3.919828,6.84459968,4.1086252,-0.4703198,-0.1269086,-0.364316,24960.0,-12547.5,11136.5,
52.733,-4.044327,7.18936436,4.7023872,-0.5297409,-0.96040328,-0.33940176,24192.0,-5635.5,18304.5,
52.850,-2.717939,6.370548,6.940966,-0.7922065,-1.3006758,-0.3383359,30848.0,1020.5,23425.5,
52.964,-0.73075132,4.7975572,9.256159,-1.238398,-1.1898274,-0.364848936,-23936.0,12284.5,30337.5,
53.081,1.2803781,2.6236222,11.039839,-1.5057931,-0.7497647,-0.39296072,-13952.0,29180.5,-28030.5,
53.204,1.9411778,-1.0634484,12.782818,-1.3965435,-0.16594535,-0.3936269,-7808.0,-12291.5,-22142.5,
53.321,1.6562676,-3.0985198,12.050192,-0.99418516,0.30289536,-0.35312456,-8832.0,8188.5,-17533.5,
53.439,0.4256481,-4.9205076,10.944071,-0.16708554,0.64903016,-0.28637572,-16512.0,21756.5,-14717.5,
53.556,-0.8887686,-4.214218,10.12286,1.005083,0.56682648,-0.16140485,-26240.0,18684.5,-13437.5,
53.671,-1.3819742,-1.7027004,9.749365,1.767965,0.33913428,-0.0773359236,32128.0,-1795.5,-13950.5,
53.794,-1.0156612,0.3491306,9.74697,1.93663568,0.06920778,-0.05442015,31616.0,31996.5,-23678.5,
53.909,-1.0300264,3.035425,8.789289,1.4867139,-0.1602164,-0.10038493,-30336.0,6140.5,27009.5,
54.025,-0.70202092,4.1894296,7.738235,0.5600906,-0.31782896,-0.19697758,-26496.0,-8963.5,12928.5,
54.141,-0.31176604,4.378572,7.08701236,-0.664571,-0.455057136,-0.32754418,-25472.0,-10499.5,9856.5,
54.258,-0.32373704,2.7648802,7.5371224,-1.6819248,-0.53712756,-0.44212306,-28800.0,-1283.5,16768.5,
54.383,-0.15374875,0.16477707,8.463678,-2.028859,-0.491162784,-0.47369884,-28800.0,20220.5,-30334.5,
54.501,-2.674843,-2.6460156,9.299254,-1.5809355,-0.386309868,-0.39296072,-24960.0,-17667.5,-18046.5,
54.618,0.8542102,-3.931702,10.37904,-0.6059492,-0.025519632,-0.32900974,-21376.0,4860.5,-14973.5,
54.732,1.0696883,-3.40258332,10.929706,0.49494052,0.42640072,-0.21589642,-22912.0,12540.5,-13693.5,
54.858,0.5645118,-1.1448512,10.896187,1.2323754,0.7576136,-0.13835584,-31360.0,2812.5,-12669.5,
54.980,-0.36922688,1.0745738,10.09413,1.3722682,0.8283594,-0.12290101,23168.0,-18435.5,-18046.5,
55.096,-2.0451682,1.80719952,9.414176,0.95951784,0.62158452,-0.16686733,13184.0,26876.5,-26750.5,
55.214,-2.579075,2.312376,8.999979,0.30775058,-0.019390992,-0.21043394,7808.0,12540.5,31617.5,
55.330,-2.7825824,1.1990721,9.526704,-0.107930856,-0.7283144,-0.23135124,9344.0,9212.5,29313.5,
55.447,-1.4202814,-0.40025456,10.300031,-0.12285279,-1.0996299,-0.20750286,19328.0,12028.5,32641.5,
55.565,-0.64695424,-1.6141148,10.541845,-0.10153578,-0.97998816,-0.16087192,31104.0,15868.5,-30846.5,
55.689,2.738447,0.40898564,10.6040944,-0.08701356,-0.3248902,-0.22082598,-26240.0,19452.5,-31102.5,
55.805,2.1039834,1.8670545,9.184333,-0.14523562,0.5066059,-0.23521496,-28032.0,21756.5,-31102.5,
55.923,-0.38838048,3.0138772,8.243412,-0.58743008,1.0108862,-0.29250436,27776.0,22780.5,-28798.5,
56.040,-0.34528488,0.89979692,8.372699,-0.9490196,1.093756,-0.3236805,11136.0,30716.5,-23166.5,
56.154,-2.2774058,-0.6133385,8.552263,-0.85216068,0.72750332,-0.30396226,-2176.0,-22276.5,-20350.5,
56.276,-3.148895,-2.164781,9.363898,-0.27087264,-0.04470493,-0.21176626,-10112.0,-10500.5,-18814.5,
56.391,-2.8017358,-2.7393896,10.40777,0.41127128,-0.6778198,-0.11797146,-8576.0,-6660.5,-17534.5,
56.508,-1.99489,-1.094573,10.632825,0.9039604,-1.0039699,-0.04469427,-128.0,-12292.5,-16254.5,
56.622,0.4567727,0.40659144,10.582546,1.0425209,-0.891123,-0.041763184,14464.0,-24067.5,-19582.5,
56.738,2.4463544,2.561373,10.0630048,0.7586051,-0.35846448,-0.07933439,23424.0,27900.5,-24702.5,
56.860,2.8653396,2.5661614,9.335168,0.087785824,0.54537624,-0.1735289,25728.0,19964.5,-30078.5,
56.976,1.6442966,1.6659415,8.384669,-0.52001508,1.272419,-0.2521353,16512.0,19708.5,-30078.5,
57.092,-0.1345951,0.200690092,7.6592264,-0.8476307,1.5575339,-0.28810772,-2432.0,27387.5,-28798.5,
57.209,-2.588652,-0.9293731,7.5778236,-0.6644378,1.2519015,-0.22282446,-22400.0,-27652.5,-31358.5,
57.326,-4.6021756,-1.1328802,6.6608444,-0.2432938,0.407215432,-0.17219658,29568.0,-20228.5,28545.5,
57.449,-4.1831904,-1.4800396,6.644085,-0.12631677,-0.5785625,-0.052554916,25728.0,-18180.5,28033.5,
57.566,-6.3020588,-1.3363874,8.365516,-0.28566134,-0.4200173,0.03484478,31616.0,-16132.5,-31358.5,
57.681,-5.9333516,-1.721854,10.448471,-0.107531176,-0.46718116,0.16621077,-28800.0,-13060.5,-27774.5,
57.799,-4.5878104,-1.6428452,12.263276,0.23660512,-0.7095288,0.25987236,-21632.0,-13828.5,-24190.5,
57.916,-2.4976724,-1.082602,12.756482,0.5401059,-0.8186452,0.32049256,-11648.0,-19460.5,-21118.5,
58.032,-1.343667,-0.40264876,11.659938,0.78325292,-0.7248504,0.38830728,2176.0,-28163.5,-21374.5,
58.153,-0.8360962,0.4784175,9.890622,0.7715286,-0.2791919,0.4414665,15488.0,25084.5,-25982.5,
58.266,0.5693002,1.2924461,9.22264,0.5762116,-0.048835108,0.449060736,20096.0,15612.5,-30846.5,
58.382,-0.70441512,0.8590956,8.415794,0.347853168,0.0168479016,0.452125,25984.0,7932.5,29825.5,
58.498,-0.8839802,0.25336254,8.126096,0.16372762,-0.16834352,0.44439764,30592.0,4860.5,26241.5,
58.614,-0.16332555,0.97401732,9.184333,-0.09594004,-0.215240916,0.4226809,-30848.0,4860.5,24449.5,
58.736,1.18461,1.76649808,10.79563,-0.34961236,-0.13663448,0.384310332,-27776.0,7164.5,24193.5,
58.853,0.7488653,1.4744053,9.864286,-0.5737073,-0.31396526,0.35579888,-23936.0,11772.5,28033.5,
58.968,1.1941868,0.9404984,8.36791,-0.7727547,-0.34101116,0.32395658,-17792.0,18940.5,31361.5,
59.082,0.928430464,0.71065508,6.035958,-0.880672064,-0.008199573,0.30650328,-12672.0,28924.5,-29310.5,
59.200,4.0049796,-1.0419006,7.829215,-0.7659599,0.6583563,0.31316484,-10880.0,-22787.5,-22910.5,
59.321,2.7288702,-0.24941984,9.299254,-0.5835664,1.4530806,0.30463804,-20352.0,-7939.5,-16254.5,
59.437,1.2061579,-0.86712384,11.130819,-0.20026012,1.8539734,0.33195046,24192.0,2556.5,-11389.5,
59.555,-1.9230638,-0.9844398,11.473189,0.24100176,1.5282232,0.38231184,-384.0,3835.5,-15229.5,
59.671,-4.0371436,-1.1017556,10.252147,0.4645638,0.6615539,0.43693664,-19072.0,-3588.5,-22654.5,
59.787,-4.8128652,0.030701768,7.76935936,0.57914264,-0.9036467,0.459852436,-22912.0,-16644.5,-26750.5,
59.911,-2.9765126,0.447292868,8.276931,0.305086,-2.3633282,0.447994836,-2944.0,-28420.5,-22142.5,
60.028,-0.1130473,1.5031359,9.773307,-0.016400992,-2.668561,0.415486468,30592.0,32764.5,-22654.5,
60.145,5.3577036,-5.3778,11.664726,-0.32123404,-2.048503,0.36139456,384.0,-28674.5,-32126.5,
60.261,5.965831,-0.21111262,11.760494,-0.3474806,-0.769349636,0.33421536,24448.0,-21250.5,23169.5,
60.378,4.9650544,-1.2789266,11.130819,-0.1301805,0.73589692,0.3147636,32128.0,-12034.5,18817.5,
60.494,3.0520872,-1.97324492,10.307214,0.34585472,1.9161924,0.33328276,20864.0,-7170.5,28033.5,
60.618,0.021027982,-0.9006427,9.289678,0.88597416,2.4151436,0.372985668,-7040.0,-11779.5,-23422.5,
60.736,-2.7131504,5.278792,9.47882,0.994024768,2.0265078,0.36938844,29056.0,-26627.5,-20862.5,
60.852,-3.86954968,2.0538022,7.51318036,0.66454384,0.7877239,0.37844812,10624.0,23036.5,-28798.5,
60.971,-4.702732,3.2221728,8.106942,0.011844024,-0.6042761,0.34300868,7552.0,12028.5,30849.5,
61.086,-3.7809644,3.3131524,9.19391,-0.7574331,-1.746601,0.287318,19840.0,12028.5,31617.5,
61.208,-1.0204496,1.1679475,10.596911,-1.2486568,-2.242621,0.24574982,-19840.0,25340.5,-27518.5,
61.325,1.0194101,5.582855,10.108495,-0.9579461,-1.8529194,0.35992904,8064.0,-21250.5,-31614.5,
61.442,5.434318,-4.4344844,10.513115,-0.18054192,-0.7068642,0.30943438,29824.0,-3330.5,22913.5,
61.558,5.6090948,-4.1735168,9.787672,0.86132648,0.7108494,0.3756503,-32640.0,1021.5,17794.5,
61.673,3.98822032,-1.94930284,8.7174632,1.6050232,1.94137316,0.41801784,23424.0,-7170.5,24961.5,
61.798,0.80153776,1.5821445,7.1755976,1.8339144,2.6498968,0.4294757,-1152.0,-29699.5,30849.5,
61.915,-0.74032816,4.141546,5.4541664,1.2736771,2.4353946,0.38497648,-28288.0,10492.5,27265.5,
62.032,-2.5862576,5.2093596,4.5108516,0.24006914,1.5621971,0.28425366,18560.0,-5379.5,15488.5,
62.150,-3.6421008,5.7456612,4.9992684,-0.79646984,0.482357868,0.22829654,7808.0,-8707.5,12928.5,
62.268,-3.37155568,6.298722,5.389523,-1.5812019,-0.9754583,0.2200362,7040.0,1276.5,22145.5,
62.384,-2.339655,6.315481,7.762177,-1.70897068,-2.446731,0.240687024,20096.0,22012.5,-26238.5,
62.506,0.38734084,5.0776788,10.161167,-0.5529232,-2.9138396,0.3202261,-11136.0,-19715.5,-22142.5,
62.622,5.0871588,3.2748452,11.573746,-0.054238676,-1.8559836,0.3382123,23936.0,-10754.5,26241.5,
62.739,7.7112035,1.9029674,12.3159484,-0.1942647,-0.26080602,0.29357984,-23680.0,-6914.5,8065.5,
62.858,5.3888284,1.86226608,11.185885,-0.53560316,1.2011403,0.21937004,-23424.0,-514.5,9345.5,
62.977,2.0776472,0.05224958,9.055046,-0.8433673,2.3162858,0.143295,27008.0,9469.5,25730.5,
63.096,-1.472954,-1.1376686,6.9673024,-0.7958038,2.498946,0.13716636,-7040.0,23292.5,-18045.5,
63.211,-2.2582522,-2.959656,5.1931988,-0.44100892,1.639471,0.16194738,27008.0,-31235.5,-11133.5,
63.327,-3.9533468,-1.3100512,6.2634068,-0.07369043,0.2625263,0.23762272,7808.0,-25603.5,-11645.5,
63.443,-3.883915,-0.9102195,8.05427,0.30615184,-0.92030068,0.29917556,6016.0,-27139.5,-12669.5,
63.557,-3.3428254,-1.1711874,10.089341,0.6773341,-1.8034906,0.3663241,20352.0,32764.5,-11389.5,
63.679,-0.50809056,-0.237448816,11.018291,0.806301936,-2.1008628,0.38697496,-19584.0,22268.5,-14973.5,
63.798,2.4702964,1.3092055,10.551422,0.6279053,-1.65627,0.3697881,9856.0,12285.5,-28541.5,
63.913,3.5189566,3.1144336,9.181939,0.17318704,-0.4813037,0.30730264,29056.0,7165.5,23682.5,
64.031,3.5883884,1.2325909,9.67275,-0.192665952,0.86286632,0.21004385,31616.0,7933.5,20610.5,
64.149,1.6442966,0.7441739,10.175532,-0.35654032,1.6839704,0.171406784,19328.0,13053.5,32386.5,
64.268,-0.8313078,0.22942052,10.347915,-0.4095664,1.8385186,0.15715104,-3200.0,18940.5,-19837.5,
64.390,-3.6756196,1.4791937,9.50755,-0.32989408,1.2974666,0.20697954,-29312.0,25340.5,-12669.5,
64.507,-4.132912,-0.0076054632,9.414176,-0.19533058,0.28557532,0.21883711,20096.0,29948.5,-10365.5,
64.624,-3.8096948,-0.26378504,9.742182,-0.045845108,-0.8305028,0.2664007,18560.0,32764.5,-10365.5,
64.740,-2.8089184,-0.3403995,10.474808,0.06753468,-1.7151582,0.28798416,30080.0,32764.5,-11901.5,
64.856,-1.1377656,0.0043655484,11.054204,0.18824218,-2.1664126,0.31010056,-9088.0,-32515.5,-18813.5,
64.979,2.9850498,-4.7624904,10.596911,0.2424673,-2.0387768,0.29771004,17792.0,31229.5,31106.5,
65.096,3.1478552,0.28209292,10.537057,0.22661278,-1.264437,0.30157372,-24960.0,31741.5,8578.5,
65.213,4.352139,0.7441739,9.397417,0.13081952,-0.039908604,0.246415984,-15488.0,31997.5,-2941.5,
65.330,4.486214,0.6508,8.600147,0.113499452,1.2730852,0.21763804,-17280.0,-31746.5,-1149.5,
65.445,3.6961276,2.537431,6.766189,1.2142559,2.1191036,0.22789684,-31616.0,-31490.5,18050.5,
65.567,2.4032588,2.549402,2.016093,3.9149864,0.09891835,0.22789684,12672.0,10493.5,-29309.5,
65.682,1.69936352,7.17978736,1.7335772,3.2183202,-1.5909867,0.10452472,18560.0,26365.5,16513.5,
65.802,3.50459136,8.228449,2.6026724,0.24339992,-1.841195,-0.25400054,-29568.0,-2306.5,-26495.5,
65.919,5.2308108,9.530894,2.0424292,-2.0347212,-0.8568825,-0.5232609,-21120.0,-4866.5,23424.5,
66.034,5.7623232,7.8046744,2.4829624,-3.2148834,0.499411468,-0.6623543,-23680.0,6141.5,-23166.5,
66.152,4.522127,3.5741204,4.7263292,-3.0984392,1.7703042,-0.6977938,25984.0,-30722.5,17537.5,
66.280,1.2516477,0.04746118,9.165179,-1.6130443,1.8008142,-0.5443114,-128.0,764.5,-20861.5,
66.396,-2.9334168,0.26054512,12.280036,-0.8974592,1.203272,-0.4355947,-27264.0,22268.5,-11133.5,
66.511,-4.298112,0.5310899,11.760494,-0.8590886,0.23468096,-0.40455184,24448.0,-29699.5,-9597.5,
66.626,-4.156854,-1.166399,11.276865,-1.0934423,-0.9436161,-0.42666824,24960.0,-15363.5,-11645.5,
66.742,-3.2231154,-3.919731,10.268907,-1.1696507,-1.5666054,-0.47076776,-25728.0,1788.5,-20860.5,
66.865,1.5126157,-6.0170516,9.160391,-0.16442092,-1.3850112,-0.3647157,-2944.0,16124.5,29059.5,
66.981,3.0161744,-5.5956724,9.416571,1.0533126,-0.5653726,-0.26639108,12160.0,14589.5,19843.5,
67.097,3.6147246,-3.2517488,9.481214,1.7073448,0.4868877,-0.20870194,15744.0,-1538.5,23426.5,
67.215,2.1063776,-0.6013675,9.126872,1.6087536,1.3568877,-0.23508172,9088.0,-25602.5,-32381.5,
67.331,0.040181636,1.1655533,8.382276,1.2095928,1.6911648,-0.27704954,-8320.0,14844.5,-21885.5,
67.454,-0.9582005,2.6547468,7.132502,0.5009359,1.307592,-0.38803116,-30080.0,-7683.5,-17534.5,
67.568,-4.3196596,2.6762948,8.901817,-0.2909906,-0.021655924,-0.41880756,24192.0,-15363.5,-16254.5,
67.685,-4.5878104,1.83592984,11.389393,-0.6138099,-1.1194813,-0.41014756,28032.0,-9475.5,-13950.5,
67.803,-1.9110928,0.042672776,12.344679,-0.64445304,-1.75592708,-0.3898964,-24704.0,3068.5,-15229.5,
67.921,2.2955196,-1.6931234,12.081317,-0.495767,-1.8916896,-0.3437984,-3712.0,11772.5,-24189.5,
68.037,2.4152298,-1.93014932,9.916959,-0.05650361,-1.2516468,-0.35419044,17792.0,13565.5,28546.5,
68.160,2.3457978,-0.9652862,8.784501,0.47642136,-0.14489481,-0.3178183,32640.0,8445.5,18306.5,
68.276,2.5900064,-0.25420824,9.536281,0.6783999,0.79092148,-0.31848446,-30336.0,-2.5,15745.5,
68.392,1.8047082,1.007536,10.249753,0.574746,1.4369596,-0.342066368,25216.0,-8194.5,24193.5,
68.509,-0.232757392,1.9939473,10.09413,0.2556572,1.5776517,-0.37604036,5760.0,-15618.5,32129.5,
68.628,-2.5240084,2.7002368,9.050258,-0.17108248,1.2248556,-0.40228692,-18304.0,-21251.5,-24702.5,
68.750,-3.2039618,1.2589274,8.214682,-0.61314376,0.29543442,-0.4321307,30080.0,-21251.5,-20094.5,
68.866,-2.7993416,-0.043518484,8.928153,-0.69707932,-0.5993466,-0.418008184,28544.0,-14595.5,-16254.5,
68.983,-1.331696,-1.3411758,9.74697,-0.352943068,-1.1124202,-0.362584032,-27008.0,-4611.5,-15486.5,
69.101,0.37536984,-1.0251412,10.180321,0.21035856,-1.2052823,-0.3122226,-12928.0,508.5,-18045.5,
69.218,1.7400648,-1.4082134,10.218628,0.72329885,-0.8380969,-0.26465904,896.0,-2818.5,-24702.5,
69.342,2.2739718,-0.038730084,9.660779,1.0065484,-0.09200202,-0.25346762,8320.0,-16642.5,30593.5,
69.458,2.5109978,1.5127127,9.2585532,0.8641243,0.6690148,-0.28824096,7040.0,31741.5,25985.5,
69.574,1.7113345,2.5182774,8.901817,0.34811968,1.263226,-0.35498984,-896.0,18684.5,25217.5,
69.691,0.1503149,2.6691122,8.391852,-0.31377316,1.4874542,-0.43013224,-16768.0,13308.5,29313.5,
69.807,-1.5543568,1.81438216,7.82682036,-0.8517608,1.2622936,-0.4682364,30080.0,18684.5,-30078.5,
69.925,-2.981301,0.97162308,7.30249,-1.2037579,0.4762292,-0.48688876,10880.0,-30467.5,-22910.5,
70.045,-3.821666,-0.25660244,7.522757,-1.2567838,-0.712726336,-0.460508936,2944.0,-9219.5,-17278.5,
70.165,-3.61097632,-1.3723004,8.844357,-0.9003902,-1.8593144,-0.38829764,10880.0,9468.5,-12669.5,
70.282,-1.4561944,-2.3204044,10.273695,-0.24649136,-2.3875764,-0.29996532,-29824.0,18428.5,-13181.5,
70.400,2.597189,-3.100914,11.286442,0.50173528,-2.026786,-0.23121802,3456.0,17661.5,-25725.5,
70.515,5.9490716,-1.2501962,11.181097,1.0413218,-0.8126497,-0.18845078,29056.0,10493.5,23938.5,
70.639,5.6306424,0.03549017,10.443683,1.1845453,0.919489536,-0.22668814,-29056.0,-1794.5,15489.5,
70.758,2.8270324,1.0266896,9.919353,1.0126771,2.2538004,-0.2759837,21632.0,-16130.5,22401.5,
70.874,-0.58709924,2.0202834,9.411782,0.6232422,2.674145,-0.3283436,-9088.0,-31491.5,-32638.5,
70.989,-2.6652662,2.2860398,8.873087,0.15346883,2.096321,-0.3817693,24192.0,23804.5,-29054.5,
71.105,-5.89265,1.86226608,8.870692,-0.18507176,0.9125616,-0.37390864,128.0,20476.5,32641.5,
71.227,-4.8008944,0.959652,7.010398,-0.29552042,-0.64464516,-0.31688568,-6272.0,21243.5,32385.5,
71.342,-3.0866458,0.5382725,7.12531936,-0.25848216,-1.8293374,-0.28411078,3200.0,26620.5,-27006.5,
71.460,-1.3412728,0.684318836,7.862734,-0.30697834,-2.4524598,-0.27864832,25472.0,32508.5,-20862.5,
71.577,1.5269809,1.3307533,8.841962,-0.44167512,-2.3029744,-0.30143084,-12160.0,-26371.5,-24446.5,
71.694,5.8916108,0.6220696,9.74697,-0.50189568,-1.3135994,-0.3250128,13440.0,-18434.5,30337.5,
71.814,5.659373,0.7752985,10.335944,-0.45339948,0.12876216,-0.36658096,22656.0,-14082.5,22913.5,
71.930,4.000191,-0.51757044,10.084553,-0.29911768,1.4286992,-0.379770832,16256.0,-10754.5,28033.5,
72.048,1.1175723,-1.1448512,9.2346116,-0.047843576,2.1805232,-0.36884588,-6528.0,-9731.5,-24702.5,
72.165,-1.8368726,-1.142457,8.569023,0.379429,2.0524878,-0.31675244,30080.0,-12547.5,-16510.5,
72.280,-5.251004,-1.1592164,8.870692,0.7904474,1.2066028,-0.24240944,4736.0,-20483.5,-19582.5,
72.395,-4.6811844,0.7298087,9.031104,0.8554642,0.05934867,-0.19338034,-8064.0,31483.5,-27774.5,
72.515,-4.4273988,1.5175011,9.442906,0.65988076,-0.9811873,-0.19697758,-8064.0,19451.5,32129.5,
72.631,-2.2869826,3.0880974,9.440513,0.2949604,-1.6116376,-0.21509704,6272.0,11260.5,29825.5,
72.747,0.085671424,3.76805068,8.6216952,-0.29432136,-1.6047096,-0.26252736,24448.0,9724.5,31873.5,
72.866,1.4814911,2.7169962,7.96329,-1.0597348,-0.9410847,-0.3476621,-24704.0,17148.5,-29054.5,
72.981,1.7616126,0.863884,8.408611,-1.4142632,-0.033913204,-0.38803116,-16768.0,-31235.5,-23422.5,
73.101,2.860551,-0.9940166,9.64402,-1.0983719,0.8095738,-0.3561889,-21632.0,-9219.5,-16254.5,
73.214,0.492685736,-3.088943,11.1930684,-0.29858476,1.2347146,-0.25773102,29568.0,6140.5,-12157.5,
73.333,-1.2766292,-3.74734836,12.177085,0.65521764,1.2289857,-0.16393623,10368.0,7932.5,-11901.5,
73.453,-2.8352546,-2.6340446,11.789225,1.429824,0.8732583,-0.07773562,-8576.0,-6660.5,-18814.5,
73.568,-3.361979,-5.3969536,11.394181,1.7517108,0.24560594,-0.07320576,-17280.0,-28164.5,-27774.5,
73.690,-2.9382052,2.2190022,9.196304,1.5021686,-0.38497752,-0.040430872,-16768.0,13307.5,23425.5,
73.807,-1.3987336,3.7034072,8.499591,0.680664836,-0.770948336,-0.12210162,-10112.0,-3076.5,13184.5,
73.926,-0.424293468,3.533419,8.099759,-0.29432136,-0.802391,-0.2192272,-640.0,-8196.5,11136.5,
74.041,0.3203032,2.3027992,8.068635,-1.0496093,-0.5954829,-0.295169,4992.0,-3331.5,19584.5,
74.156,0.5573292,0.68671304,7.9273768,-1.4097334,-0.28278916,-0.3271445,8832.0,11260.5,31105.5,
74.272,1.3809345,-2.2294244,7.276154,-1.3769585,0.054552344,-0.356855068,8064.0,-32515.5,-20094.5,
74.395,-0.46020656,-2.2150592,8.4229768,-0.79447144,0.31328744,-0.230285392,3456.0,-11011.5,-15998.5,
74.514,-1.1641018,-2.4065954,9.351927,-0.020531178,0.326877,-0.1296958,-5504.0,1275.5,-14461.5,
74.629,-1.769835,-1.7769206,10.726199,0.64695732,0.16206994,-0.03803271,-12160.0,1275.5,-17533.5,
74.746,-1.7387104,-0.32364008,11.987943,0.9924259,-0.014461435,0.011262848,-13184.0,-9732.5,-19838.5,
74.863,-1.0491803,1.98437036,12.737329,0.94566184,-0.0697524,0.014860091,-12160.0,-24324.5,-23934.5,
74.987,0.4280423,2.8319178,12.428476,0.5214535,0.07027363,-0.023510504,-9600.0,26363.5,-29566.5,
75.103,0.24129456,2.7409382,10.786054,-0.11312689,0.33633644,-0.08293164,-9344.0,20987.5,31873.5,
75.220,-1.262264,1.4193387,8.935336,-0.7294546,0.5436442,-0.12942934,-12928.0,23291.5,32129.5,
75.335,-2.4737304,-0.21111262,7.26657732,-1.001646,0.48209144,-0.098919384,-19328.0,-32260.5,-31870.5,
75.452,-3.1441066,-1.92296668,6.82125536,-0.57237492,0.19617716,0.03084784,-25472.0,-19460.5,-28798.5,
75.577,-3.2757878,-2.3874418,8.018356,0.1606633,-0.05003418,0.216438936,-27264.0,-15364.5,-28542.5,
75.693,-3.2590284,-2.4808156,9.521915,0.709576,-0.25800818,0.3359474,-25728.0,-20740.5,-28286.5,
75.808,-2.267829,-0.62052108,10.644796,0.88597416,-0.358331268,0.39123832,-20352.0,-32516.5,-30590.5,
75.925,-0.68526152,1.9747934,10.788448,0.60871992,-0.3366146,0.38737468,-13184.0,19451.5,30337.5,
76.042,0.76323052,3.083309,10.484385,-0.06503041,-0.08574015,0.33408216,-5248.0,12283.5,29569.5,
76.163,0.8589986,2.3985672,9.814008,-0.8540258,0.57322156,0.2905155,-2432.0,14843.5,31105.5,
76.278,-1.4585886,0.97641144,8.068635,-1.4546323,1.3562216,0.3116993,-8320.0,25851.5,-30590.5,
76.394,-3.1584718,0.13125824,5.9593432,-1.5528237,2.163736,0.424945868,-23936.0,-22276.5,-30334.5,
76.512,-5.418598,-0.8024804,3.87399336,-0.942091664,2.105514,0.5716334,20096.0,-9220.5,21377.5,
76.628,-7.798435,-1.6189032,4.1804516,0.31827588,0.85407304,0.7536273,4480.0,-9732.5,-638.5,
76.749,-9.649153,-0.39067772,3.83089784,1.0383908,-1.1529224,0.8925875,3712.0,-25860.5,-10366.5,
76.867,-8.373043,1.3451185,4.3001616,1.0077475,-2.4387372,0.9974404,19072.0,18939.5,641.5,
76.983,-4.7937116,2.6762948,6.0790532,0.5106618,-2.3918396,1.0419397,-17792.0,2043.5,13441.5,
77.100,-1.6070292,3.7058016,7.90343468,-0.385718,-2.1060588,0.9634665,11904.0,-6147.5,18816.5,
77.216,1.7304881,3.9691636,9.445301,-1.3948114,-1.69091016,0.84875432,-24192.0,1276.5,25217.5,
77.335,3.248412,1.8670545,11.777253,-2.1447702,-0.9036467,0.7203195,384.0,29181.5,-31614.5,
77.458,7.237152,-5.9548024,12.500302,-2.0762892,0.06387853,0.67368856,9600.0,-2050.5,-25982.5,
77.574,3.5213508,-5.5286344,10.347915,-0.751571,1.1550423,0.7704144,4224.0,31997.5,-24445.5,
77.696,0.82787392,-4.4727916,8.595359,0.74235096,1.3869979,0.90631024,-13440.0,-23811.5,-17021.5,
77.813,-1.238322,-3.0961256,7.2929132,1.9105224,0.8095738,1.0082322,-31872.0,29436.5,-11901.5,
77.929,-1.712374,-0.440956,6.3663572,2.2790398,-0.1464936,1.0272843,27264.0,-5123.5,-12158.5,
78.050,-0.68286732,1.80719952,4.3839584,1.7133402,-0.8321015,0.93242368,-29056.0,28668.5,-25214.5,
78.167,-0.067557452,4.59405,7.8747043,0.3971488,-1.0411414,0.76308668,-9088.0,11516.5,24705.5,
78.284,2.0728588,5.913255,11.346297,-1.0289584,-0.457988268,0.5930836,7552.0,13309.5,17025.5,
78.401,3.461496,2.9707816,13.505867,-1.8819048,0.2480041,0.48076976,11904.0,-32514.5,23937.5,
78.519,2.4870558,-2.923743,13.304754,-1.9669064,0.7894559,0.443465,6784.0,-3330.5,-29310.5,
78.636,0.23890036,-4.817557,10.905764,-1.0549386,1.1743609,0.5071495,-7040.0,26876.5,-20605.5,
78.758,-1.5902698,-4.5948964,8.7174632,0.5322452,0.8700608,0.67435468,-24192.0,-26627.5,-15229.5,
78.874,-2.5144316,-2.5502476,7.4030468,1.556527,-0.06455638,0.7769428,31104.0,29180.5,-11645.5,
78.989,-2.4904898,-0.3595531,6.6249312,1.78874916,-0.963867264,0.816246,-29824.0,5628.5,-14205.5,
79.107,-0.9582005,1.85987184,6.6273256,1.2520936,-1.5258366,0.7458999,-9856.0,-20227.5,-25214.5,
79.224,1.68739252,3.772839,6.826044,0.11389915,-1.3778168,0.5724328,12672.0,-30978.5,24961.5,
79.346,3.796684,3.6004564,9.332773,-1.051741,-0.41695304,0.42401324,28288.0,-25346.5,13185.5,
79.462,3.358545,0.25336254,11.33672,-1.5289754,0.7219077,0.31143288,31360.0,-7938.5,15745.5,
79.578,2.465508,-2.5239114,12.136384,-1.3084775,1.6102935,0.3231572,20352.0,14589.5,29058.5,
79.694,-0.68286732,-4.3889948,11.686274,-0.42515444,1.891811,0.3957682,-1408.0,-32003.5,-23677.5,
79.810,-3.0028488,-3.709041,10.802814,0.7592713,1.4045845,0.52047264,-26752.0,-26627.5,-14717.5,
79.948,-3.560698,-7.24767168,8.86351,1.4572697,0.2245554,0.5716334,19328.0,19964.5,-10621.5,
80.063,-4.003625,1.6539705,7.7095048,1.3769313,-0.9999729,0.61546652,21632.0,-3587.5,-14718.5,
80.180,-1.7195568,2.9109266,7.017581,0.69425448,-1.9392532,0.5555124,-24448.0,-22275.5,-22398.5,
80.297,0.473532136,3.42568,7.1708092,-0.28752656,-2.0167938,0.44919396,2944.0,-28418.5,30337.5,
80.416,3.05927,2.939657,8.17398,-1.1984286,-1.3407785,0.32462272,25728.0,-20482.5,17025.5,
80.530,4.88844,3.332306,9.457272,-1.6322296,-0.238289908,0.2618708,-27520.0,-3330.5,8577.5,
80.650,4.9913908,-1.403425,9.998362,-1.4864746,0.97438088,0.2111097,-27776.0,19965.5,10370.5,
80.765,2.9036468,-2.983598,9.572193,-0.868015,1.88528284,0.246682452,24192.0,-26114.5,22914.5,
80.882,-0.18008494,-2.8447344,8.478044,0.028764382,2.257531,0.31929348,-896.0,-13827.5,-27773.5,
80.998,-2.3971156,-1.7194598,7.49402668,0.8027047,1.825462,0.40429504,-30336.0,-14595.5,-16509.5,
81.115,-2.7825824,0.18153646,7.82442668,1.1273892,0.6656841,0.45905304,11648.0,-29699.5,-11389.5,
81.238,-3.71153236,0.98838248,8.683945,1.0942146,-0.6230617,0.479570668,7296.0,16636.5,-12925.5,
81.356,-2.875956,1.98437036,9.809219,0.8284183,-1.3951368,0.481036232,20608.0,-2051.5,-13694.5,
81.473,-0.44823556,2.3626542,10.130043,0.42566024,-1.6650634,0.451858584,-23936.0,-14083.5,-20350.5,
81.592,2.063282,2.2740688,9.493185,-0.028658286,-1.3752853,0.39270392,896.0,-16642.5,-31102.5,
81.709,-0.20402694,5.2476672,8.564235,-0.4745832,-0.5673711,0.3664573,17280.0,-13570.5,25985.5,
81.829,3.035328,1.934092,7.9369532,-0.823649,0.5456427,0.25867328,20608.0,-4098.5,25985.5,
81.943,1.8908994,1.5917213,8.897029,-1.177911,1.3118556,0.19152472,12672.0,9725.5,-31869.5,
82.060,0.054546832,0.42335084,10.247358,-1.3087441,1.6409367,0.16261354,-5760.0,28412.5,-20861.5,
82.177,-2.2821942,-1.4800396,10.953648,-0.9344974,1.3119888,0.19791982,-30848.0,-16899.5,-15997.5,
82.293,-4.5854164,-2.7609374,11.221799,-0.16109015,0.399221536,0.29904234,19072.0,-5123.5,-15741.5,
82.412,-5.602952,-2.15281,10.453259,0.60685476,-0.79706176,0.40829196,14464.0,-5891.5,-17277.5,
82.533,-3.0674922,-0.7713558,9.184333,1.040922,-1.9757586,0.47064418,27776.0,-16899.5,-15485.5,
82.650,-0.39316888,0.42813924,9.189121,1.0928823,-2.4120908,0.4882307,-10624.0,-32003.5,-19837.5,
82.766,3.1143364,0.6484058,9.064623,0.811897636,-1.9131398,0.419749868,19584.0,22525.5,28802.5,
82.884,6.198068,-1.2861092,9.555434,0.36224216,-0.6767539,0.3709872,-25472.0,15613.5,7298.5,
82.998,6.320173,1.9029674,9.964843,0.0851212,0.7093839,0.2933134,-21120.0,16637.5,1922.5,
83.117,4.570011,1.5151069,9.287284,-0.06423102,2.0175814,0.23682334,-31104.0,19453.5,13954.5,
83.233,1.649085,1.5989039,8.389458,-0.027325972,2.4174082,0.2004512,10624.0,22525.5,-31101.5,
83.349,0.942795664,2.9468396,7.640073,0.80203852,0.54084632,0.16287999,-18560.0,21756.5,-17021.5,
83.467,-0.37880368,3.61961,6.7206992,0.67720088,-0.47410924,0.04976668,-22656.0,8444.5,-15997.5,
83.582,1.1391202,4.6946064,6.885899,-0.405436232,-0.46358396,-0.059882632,-15744.0,1020.5,-19069.5,
83.705,1.397694,4.1367576,9.0119508,-1.603185,-0.31902808,-0.21589642,-10112.0,11260.5,-19581.5,
83.821,1.3091085,1.2182257,11.492343,-1.9028222,-0.18299896,-0.2533344,-7552.0,-30467.5,-21629.5,
83.938,0.11679608,-2.0091582,12.588888,-1.3297946,-0.008732494,-0.21802812,-5760.0,-5379.5,-28029.5,
84.056,-0.1345951,-6.100849,12.11723,-0.16921724,0.16540074,-0.11011081,-6272.0,8956.5,29571.5,
84.171,-1.1617076,-4.769673,10.968013,1.1714888,0.12529813,0.024053048,-8832.0,7676.5,30339.5,
84.288,-1.4609828,-0.797692,9.47882,1.976605,-0.026985176,0.105324104,-10368.0,-12035.5,-27517.5,
84.409,-1.118612,2.3075876,7.1492616,1.6599144,-0.23136188,0.059359328,-8064.0,25852.5,-23421.5,
84.526,-0.062769052,4.3115344,7.357557,0.5311794,-0.14276312,-0.060149092,-2432.0,4348.5,-24701.5,
84.641,0.1503149,4.7496732,8.224258,-0.61434276,-0.045637548,-0.19284742,1152.0,-1282.5,-27006.5,
84.757,-0.06995165,4.2636504,9.227428,-1.3190029,-0.225632944,-0.28251204,1408.0,8701.5,-25725.5,
84.875,-0.0005198121,3.2078076,9.655991,-0.8084607,-0.707796736,-0.29703424,4224.0,25085.5,-27261.5,
84.997,1.1917926,1.67791252,9.715846,-0.238097776,-0.7407049,-0.27758248,13696.0,-32514.5,30594.5,
85.115,0.1551033,1.0913332,9.2394,-0.07675476,-0.08081059,-0.238279268,21888.0,-32002.5,24450.5,
85.230,4.0145564,-0.6492515,9.557828,0.10324065,0.87925376,-0.28251204,22656.0,31741.5,25474.5,
85.346,2.8797048,-0.1895648,8.7653468,0.2779068,1.6715798,-0.3131552,11904.0,27389.5,-30845.5,
85.461,1.0218043,0.6508,7.90343468,0.39102012,1.90833184,-0.3350051,-8320.0,23036.5,-18045.5,
85.585,-1.1449482,-1.0419006,7.25939436,0.359577532,1.5515386,-0.39575856,31104.0,16636.5,-11389.5,
85.705,-3.1704428,1.2613216,6.93138936,0.10084248,0.439324136,-0.37297604,11648.0,12284.5,-11133.5,
85.824,-3.1465008,0.7322029,8.619301,-0.14377008,-0.6213297,-0.38350132,6784.0,12796.5,-11645.5,
85.940,-2.816101,1.5845387,8.885057,-0.4490028,-1.3944706,-0.39775704,14720.0,14844.5,-11645.5,
86.056,-1.2909946,1.68030668,9.308831,-0.8544255,-1.8883588,-0.42293776,32640.0,20476.5,-13437.5,
86.179,1.2348883,-0.029153272,10.711834,-0.977930832,-1.68571408,-0.4333298,-4224.0,32252.5,-22653.5,
86.298,4.802249,-2.8375518,12.426082,-0.429551068,-0.6719576,-0.369512032,18816.0,-22786.5,27778.5,
86.417,5.4654428,-5.3466752,13.13716,0.45883484,0.6836703,-0.34033436,25728.0,-18434.5,22402.5,
86.532,3.0927888,-4.0969024,11.884993,1.3897215,1.6951617,-0.28171262,14720.0,-26114.5,31106.5,
86.651,-0.9605947,-0.15604596,9.519521,1.943697,2.0805998,-0.236147568,-11392.0,15100.5,-20861.5,
86.768,-2.5623156,2.0945036,6.474097,1.4717919,1.4414896,-0.29410316,27776.0,-15619.5,-19582.5,
86.891,-3.8671556,3.95719268,6.340021,0.32160664,0.15820626,-0.38629916,13440.0,26876.5,-28542.5,
87.009,-4.2693816,4.000288,7.8962532,-0.67189864,-0.999706432,-0.4558459,13184.0,23548.5,-29054.5,
87.126,-2.9262342,2.5901034,9.296861,-1.337522,-1.93978608,-0.49328384,24192.0,-31747.5,-22654.5,
87.243,-0.1154415,-0.029153272,10.321579,-1.4835434,-2.2851214,-0.49847988,-16000.0,-9987.5,-19838.5,
87.361,4.8812576,-2.983598,10.223416,-1.0175006,-1.7805748,-0.490486,11648.0,9469.5,-29565.5,
87.482,4.3808692,-2.7896678,10.00315,-0.10952966,-0.5956161,-0.390695768,30592.0,18173.5,22402.5,
87.600,4.5005792,-1.7721322,10.00315,0.5798088,0.70218948,-0.35352428,-30336.0,16381.5,17538.5,
87.716,2.8629452,-0.30927488,10.082158,0.9207476,1.758713,-0.34499748,26496.0,5885.5,27010.5,
87.831,-0.25191098,0.8662782,10.091735,0.9572529,2.128563,-0.3396682,4480.0,-7682.5,-27006.5,
87.946,-4.594993,1.74016184,9.227428,0.7428838,1.6262813,-0.37004496,-22656.0,-21763.5,-23678.5,
88.068,-5.516761,1.2924461,9.284889,0.4644305,0.375639632,-0.34606332,22912.0,31996.5,-25982.5,
88.184,-3.77857032,0.69628984,9.98639,0.3611763,-0.68954416,-0.32487956,19072.0,24828.5,-28798.5,
88.300,-1.0683339,0.58855076,10.144408,0.2980247,-1.2230021,-0.31502048,25472.0,18940.5,-31870.5,
88.417,4.4048116,-1.5015874,9.749365,0.16705841,-1.1798351,-0.3083589,-28544.0,15612.5,31105.5,
88.534,1.9411778,1.3092055,9.790066,0.06913345,-0.756293,-0.34992704,-17792.0,13564.5,25217.5,
88.649,0.32988004,1.5031359,8.952095,-0.08701356,-0.3187616,-0.3784385,-12416.0,11516.5,23169.5,
88.770,-0.8408846,0.5047537,8.1045468,-0.35520804,-0.1976544,-0.3901629,-12160.0,12284.5,24193.5,
88.884,-0.9701715,0.25575674,7.4652963,-0.42995076,-0.12597598,-0.390695768,-13696.0,16380.5,27265.5,
89.009,-1.769835,1.9388804,7.338403,0.29735856,2.0758032,-0.19684436,-18304.0,19964.5,30849.5,
89.125,-3.2566342,3.722561,7.326432,0.56648564,3.55333784,-0.0729393,19328.0,14844.5,28801.5,
89.241,-9.701825,7.8525584,2.9713796,0.33000022,2.8782552,-0.056018928,-15232.0,7675.5,13953.5,
89.363,-9.045814,5.968322,2.2339654,0.13335091,0.53045432,-0.08586272,29312.0,5883.5,-8318.5,
89.478,-7.918145,4.376178,4.0870776,0.035559192,-1.3207938,-0.045893352,26752.0,5627.5,-12670.5,
89.594,-5.7178736,3.2556916,3.52683432,0.0233019,-2.4809714,0.048167904,-28544.0,5883.5,641.5,
89.711,-2.6916024,2.5182774,3.78301368,-0.397842,-3.2196054,0.07201629,-3712.0,7419.5,20609.5,
89.827,0.023422182,1.9723992,7.989626,-0.931832864,-2.7840724,0.017391488,29312.0,14332.5,31617.5,
89.950,4.7807008,2.2980108,11.837109,-1.3564409,-1.5522164,-0.06747682,-4992.0,29948.5,32641.5,
90.067,7.5675516,-0.206324184,13.568116,-1.6683352,-0.443466,-0.15700822,9344.0,-16386.5,31361.5,
90.185,5.151802,-2.4449026,11.865839,-1.4117318,0.9594589,-0.17885814,9600.0,5885.5,-29309.5,
90.301,0.76801896,-2.4592678,7.6711976,-0.425420936,2.0342352,-0.09292398,-6784.0,22524.5,-19325.5,
90.419,-1.0515745,-2.504758,6.5650764,0.85146728,1.7248724,0.06708674,30080.0,24572.5,-11901.5,
90.541,-1.9996784,-2.1552044,7.3671336,1.88067852,0.6335753,0.20618014,10624.0,6652.5,-13437.5,
90.659,-2.8184952,0.16477707,10.292849,2.0545454,0.23068406,0.22243436,4736.0,-25347.5,-23678.5,
90.777,-2.5216144,4.7760096,11.044627,1.3344306,-0.227764652,0.179400668,7040.0,14332.5,26241.5,
90.897,-1.4370408,7.1654224,10.953648,0.0872529,-0.7351092,0.042971888,13440.0,-515.5,15232.5,
91.012,-0.57033984,5.400896,9.787672,-1.2996844,-0.97199432,-0.107312952,20864.0,1276.5,18049.5,
91.128,0.305938,1.1200636,9.316014,-2.136643,-0.87473552,-0.214031184,28800.0,21500.5,-31870.5,
91.249,1.0170159,-2.5167288,8.636061,-1.8442004,-0.489564068,-0.12769734,-29568.0,-14083.5,-18558.5,
91.367,2.513392,-5.1910524,8.518744,-0.54706096,0.0594819,-0.051755524,-26752.0,12284.5,-14205.5,
91.482,2.1853864,-4.697847,8.947307,0.8998302,0.62811284,0.08920313,-30080.0,14588.5,-13693.5,
91.597,1.0337753,-2.188723,9.486002,1.8333816,1.1078784,0.17580342,27008.0,-2307.5,-14974.5,
91.715,-0.62540644,1.4624343,8.894634,1.8894718,1.205537,0.16994124,14720.0,-30467.5,-24190.5,
91.837,-2.291771,4.8622008,7.7573884,0.8891717,0.669681,0.05429654,4992.0,9980.5,24961.5,
91.951,-2.4976724,5.8198816,8.595359,-0.4653902,-0.048302172,-0.066277732,1408.0,1532.5,15745.5,
92.066,-2.4785188,4.2875924,9.442906,-1.5597518,-0.6750219,-0.16700054,896.0,8444.5,23169.5,
92.182,-1.5471742,-0.048306884,10.364675,-1.9409263,-1.0532654,-0.19298064,7296.0,28924.5,-25726.5,
92.301,-4.3436016,-2.1815404,11.221799,-1.0222969,-1.1996866,-0.0123190808,18816.0,-11011.5,-16254.5,
92.427,2.4750848,-5.9643792,13.522626,0.68959132,-0.45239252,0.090935128,-30592.0,1276.5,-14717.5,
92.544,4.294678,-4.039441,14.774794,1.96821152,0.57122316,0.191391468,-25728.0,-12803.5,-18814.5,
92.662,2.7815426,0.6244638,13.745287,2.4343876,1.4518816,0.20777892,-31104.0,24828.5,-28542.5,
92.779,-0.60146448,1.3139939,11.310384,1.89946416,1.8587698,0.2136411,22912.0,-4355.5,14464.5,
92.897,-2.0715044,3.5765144,6.5650764,0.52545048,1.3523578,-0.019247106,9856.0,-20227.5,-11647.5,
93.015,-2.777794,2.7217846,4.9298364,-0.5296077,0.403618216,-0.12676472,128.0,-21507.5,-20607.5,
93.138,-2.591046,1.71621968,4.781396,-1.1243521,-0.46504944,-0.15687498,-4480.0,-16388.5,-11903.5,
93.255,-2.2223392,1.1224578,5.5690884,-1.4213245,-1.1168168,-0.17392858,-3200.0,-4612.5,4992.5,
93.373,-1.5280206,0.22942052,6.7015456,-1.5049937,-1.5454216,-0.1624707,3968.0,12028.5,24961.5,
93.490,-0.026856006,-0.61812684,7.687957,-1.3299279,-1.59978,-0.1411537,19840.0,32764.5,-24702.5,
93.604,3.3800928,-2.5813722,8.580994,-0.8978589,-1.2316622,-0.0574844736,-28288.0,-14595.5,-18302.5,
93.727,3.5405044,-2.126474,9.038286,-0.176145268,-0.32155944,-0.03430224,-15744.0,-5635.5,-20094.5,
93.843,3.4471307,-1.7553728,9.727817,0.45270616,0.6189199,0.011529311,-12928.0,-6147.5,-21630.5,
93.961,1.8645632,-0.31406328,9.924141,0.74714728,1.3179841,0.02431951,-21632.0,-14339.5,-18558.5,
94.077,-0.8432788,1.5414431,9.658385,0.6528195,1.5264909,-0.0003282698,28032.0,-26115.5,-19070.5,
94.193,-2.705968,3.298787,9.395022,0.235539268,1.0179474,-0.048424748,10624.0,30204.5,-23934.5,
94.315,-4.7913176,2.9324744,9.576982,-0.45499824,-0.098796816,-0.06681066,384.0,29436.5,-27006.5,
94.430,-4.298112,1.0386608,10.587335,-0.7760855,-1.014362,-0.063080184,2432.0,-28931.5,-22910.5,
94.545,-1.9110928,-1.4177902,11.090117,-0.541865,-1.4449654,-0.015783094,16000.0,-17923.5,-16510.5,
94.662,2.276366,-0.998805,10.192292,0.23380726,-1.0972318,0.020722266,-31360.0,-10755.5,-15230.5,
94.778,0.69140448,-1.3938482,9.095747,1.3310998,0.34446352,0.26107144,-17536.0,-15875.5,-19070.5,
94.901,-0.1226241,0.9428926,7.982444,1.72972752,1.2621603,0.3360806,-20608.0,29436.5,-25726.5,
95.016,-0.845673,2.8965612,7.3407976,1.2816709,1.2336488,0.31822764,-31872.0,7932.5,27777.5,
95.132,-2.4162692,4.6993948,6.3424152,0.07286392,0.67660904,0.17620312,25472.0,-4867.5,16512.5,
95.248,-2.9669358,4.986699,7.5371224,-1.2682418,-0.015527289,0.048700828,20096.0,-2051.5,17280.5,
95.365,-2.9334168,2.8271294,9.938506,-2.0824178,-0.58522404,-0.025775436,17536.0,14844.5,30849.5,
95.482,-1.3843684,-0.6851645,11.341509,-1.99448516,-0.786403236,0.0040683616,21376.0,-22787.5,-19326.5,
95.607,-0.08431685,-7.34343936,12.023856,-1.0292249,-0.58775544,0.17393818,29568.0,6140.5,-12669.5,
95.726,1.421636,-5.3706176,11.671908,0.31014878,-0.17580448,0.23935472,-28544.0,17148.5,-12669.5,
95.842,0.9811029,-2.543065,10.489173,1.3636081,0.15354314,0.3363471,-23936.0,9212.5,-14205.5,
95.959,0.2963612,0.56460876,8.547475,1.74731408,0.34659524,0.376849368,-22912.0,-11267.5,-16766.5,
96.077,-0.2183922,2.798399,8.109336,1.3418914,0.23894438,0.30716944,-23424.0,32252.5,-24446.5,
96.198,-0.60864704,2.8630424,6.921812,0.39288536,-0.070018868,0.20777892,-23424.0,17916.5,31617.5,
96.314,-1.226351,3.2437206,8.98322,-0.3568068,-0.34940476,0.13237004,-22912.0,14588.5,28545.5,
96.429,-0.8648266,2.3506832,11.269683,-0.89426168,-0.3867095,0.081875408,-18816.0,17404.5,31361.5,
96.545,0.33945684,0.13365245,12.394958,-1.0245619,-0.242420092,0.06269011,-13184.0,27900.5,-28542.5,
96.663,0.6459147,-1.307657,12.323132,-0.64951584,0.05988159,0.07814493,-9088.0,-21507.5,-22654.5,
96.783,1.5868359,-2.3012508,11.401363,0.113366224,0.5307208,0.15795044,-12160.0,-8963.5,-17790.5,
96.901,0.5214162,-0.6492515,10.070188,0.7247644,0.992367,0.208178608,-21632.0,-10755.5,-18302.5,
97.016,0.5693002,-4.250131,9.385446,1.0366586,1.1134741,0.3194267,31360.0,-25347.5,-20606.5,
97.130,-1.8512378,3.322729,6.5339516,0.90382712,0.694195568,0.24628274,22912.0,24572.5,-26494.5,
97.248,-4.324448,4.404908,5.791749,0.59886084,0.017114366,0.26720004,20864.0,13052.5,31873.5,
97.369,-4.2957176,4.792769,6.409453,-0.11166133,-0.8899239,0.24188612,23424.0,8956.5,27009.5,
97.484,-3.1321356,4.54856,8.300873,-1.101836,-1.5977815,0.16128123,-32384.0,11516.5,28545.5,
97.600,0.11200768,2.8774076,10.09413,-1.6085143,-1.4601536,0.11918015,-13440.0,25852.5,32641.5,
97.717,2.0608878,4.122392,10.2617232,-1.68379016,-0.9001827,0.19965182,4992.0,-18178.5,-28286.5,
97.835,5.1182832,-2.3347696,9.500367,-1.2586491,0.42733336,0.08533942,13184.0,10493.5,-28029.5,
97.951,3.085606,-3.196682,8.671974,-0.2764684,1.5965707,0.15555228,1408.0,29949.5,-22909.5,
98.071,-0.424293468,-2.827975,8.241017,0.8261534,2.0467592,0.27252932,-25216.0,29436.5,-13181.5,
98.187,-3.2015676,-2.1240796,7.731053,1.6545851,1.4504161,0.38444356,17280.0,9980.5,-10621.5,
98.306,-7.913357,0.2198437,6.9457544,1.91545184,0.07200564,0.56057524,7040.0,-17667.5,-17022.5,
98.423,-4.3890916,2.9324744,7.762177,1.4422145,-1.2359254,0.4178846,10112.0,24316.5,-29310.5,
98.539,-2.4952782,5.178235,8.681551,0.23580574,-2.1173834,0.29771004,28544.0,3836.5,22145.5,
98.661,1.196581,4.582079,10.302425,-1.0560044,-2.0044034,0.14209591,-10880.0,1788.5,17281.5,
98.778,-1.5232322,1.6611531,19.433312,-1.5889293,-1.4199178,0.012195467,13440.0,18173.5,18817.5,
98.897,5.707257,-1.88705368,11.722187,-1.3830872,0.5103364,0.017657946,20096.0,-21762.5,25985.5,
99.014,3.2101048,-3.479198,10.958436,-0.5645143,1.73792916,0.059226096,8064.0,-2306.5,-30846.5,
99.131,-0.07713425,-2.6124968,9.536281,0.364373868,2.1758602,0.14915718,-20096.0,1276.5,-18045.5,
99.248,-2.8328604,-0.48883998,7.728658,0.9872299,1.775367,0.23362578,18816.0,-8963.5,-15486.5,
99.371,-3.6468892,0.397014632,6.3088964,0.9862973,0.60479736,0.28065644,2688.0,-29187.5,-22910.5,
99.489,-3.8336368,2.0370428,6.90026436,0.56661884,-0.5471199,0.2456166,2432.0,23548.5,-30078.5,
99.605,-2.8065242,2.3219528,8.264959,0.08019164,-1.4530923,0.21390756,11904.0,18172.5,-31870.5,
99.722,-0.71159776,1.922121,9.596135,-0.3348236,-1.8044232,0.17766864,28544.0,19964.5,-30334.5,
99.837,1.6179604,0.8543072,10.484385,-0.5848987,-1.4281781,0.1411633,-18048.0,24316.5,-31614.5,
99.958,3.071241,-0.6013675,11.482766,-0.5438635,-0.50834968,0.13343589,-1664.0,31484.5,30337.5,
100.074,2.8509744,-0.4577154,11.748523,-0.2824638,0.396956616,0.11465029,4992.0,-28418.5,-32638.5,
100.191,1.6466908,-0.4433502,11.57614,0.04315336,1.1000178,0.13103772,640.0,-23554.5,-28030.5,
100.306,-0.46499496,-0.12492134,11.099694,0.5257169,1.5997683,0.180866216,-13952.0,-23555.5,-23166.5,
100.431,-3.326066,1.0817564,9.093353,1.5906341,2.2067696,0.35779732,30336.0,32252.5,-23678.5,
100.553,-5.1552364,3.7081956,4.3001616,2.6876602,2.5289228,0.569102,7808.0,8188.5,24193.5,
100.670,-5.9213804,6.0593016,-1.2376272,2.1359496,1.574321,0.5471189,-6016.0,-20228.5,-18559.5,
100.786,-5.440146,6.6698228,0.34015172,-0.22171034,-0.15901734,0.32382332,-4224.0,29179.5,13184.5,
100.903,-5.552674,6.0952144,1.3385339,-1.7234929,-1.3322517,0.189792708,1408.0,27900.5,21120.5,
101.023,-3.6421008,5.4320208,2.8037854,-2.5876308,-2.182933,0.1357008,10624.0,-26115.5,-10623.5,
101.145,-1.3412728,1.5510199,6.9146296,-2.423623,-1.78617036,0.16181414,29056.0,3836.5,27521.5,
101.264,-0.9749599,-0.73783692,11.83232,-1.2781008,-0.8807309,0.30170696,-17792.0,-32259.5,-23934.5,
101.380,4.0384984,-2.7465722,13.869785,-0.7237256,-0.394836668,0.354733,-5248.0,-13059.5,-21374.5,
101.496,2.4104414,-2.5813722,14.480307,-0.25261998,0.035500276,0.35233484,-1152.0,-771.5,-20862.5,
101.615,0.81350872,-5.7129884,13.30236,0.9104887,0.830757568,0.4515921,-3712.0,1788.5,-20093.5,
101.731,-0.39556308,0.43532188,6.1293316,0.030363158,0.90843132,0.34500712,-13440.0,-5635.5,-16510.5,
101.855,1.6035952,2.1136572,2.952226,-0.2638114,0.780929,0.30157372,-24960.0,-3843.5,-13438.5,
101.969,0.26044816,-1.3483584,12.2201808,-0.5972892,-0.08800508,0.24121996,31104.0,1020.5,-12925.5,
102.087,-2.3851448,0.5406667,11.176309,0.203430544,-0.11531748,0.35433328,28288.0,6396.5,-11901.5,
102.205,-2.768217,1.0051418,14.291165,0.22847802,-0.7211199,0.37138692,32128.0,2812.5,-12925.5,
102.322,-1.54478,1.732979,14.358203,-0.21491556,-0.9913129,0.317295,-22656.0,508.5,-15229.5,
102.442,-0.18966174,0.5358783,11.2648944,-0.57877004,-0.9849178,0.2669336,-8320.0,5628.5,-19325.5,
102.559,1.4527607,0.03309597,9.459666,-0.45739644,-0.61466816,0.27359516,4224.0,15101.5,-23933.5,
102.675,1.421636,-1.1256976,9.761335,0.030229941,-0.11585042,0.30796884,10368.0,22781.5,-28029.5,
102.793,0.77759576,-0.40983134,9.675144,0.2318088,0.23707914,0.3151633,10880.0,24573.5,-27261.5,
102.910,-0.024461806,0.5023595,9.390234,0.287233,0.41440994,0.3150301,6528.0,22781.5,-25469.5,
103.031,-0.29740084,0.49038848,9.2824952,0.2715117,0.4577101,0.3147636,1152.0,20733.5,-23165.5,
103.146,-0.43147618,0.18393066,9.596135,0.33026668,0.40161972,0.3240898,-4992.0,17916.5,-20093.5,
103.263,-0.9677773,-0.09858513,9.591347,0.33279806,0.22095818,0.31902704,-9344.0,13564.5,-19069.5,
103.380,-1.154525,0.09773941,9.636837,0.358778168,-0.019524224,0.32262428,-11392.0,9724.5,-18301.5,
103.496,-0.9007396,0.6508,9.605712,0.30402014,-0.222835108,0.3219581,-10368.0,6140.5,-19069.5,
103.618,-0.1058647,0.7345971,10.158773,0.10110895,-0.246816708,0.30543744,-5504.0,3068.5,-20605.5,
103.736,0.70576968,1.4911649,10.8985816,-0.17134894,-0.0947998768,0.2638693,-2688.0,3324.5,-22397.5,
103.855,1.0696883,1.3211765,11.209827,-0.31324016,0.15367639,0.24788152,-1664.0,7932.5,-22397.5,
103.973,0.21735254,-0.110556132,11.054204,-0.229171292,0.40854776,0.23362578,-4224.0,13820.5,-20861.5,
104.093,-0.429081968,-0.70910652,10.680709,0.013709247,0.4429214,0.2580071,-10368.0,16892.5,-19325.5,
104.210,-1.3005714,-0.1943532,10.00315,0.27257756,0.21056614,0.28771768,-15232.0,17916.5,-16509.5,
104.332,-4.927787,5.2165424,8.178768,0.3649068,-0.2454844,0.34900404,-15744.0,13564.5,-16253.5,
104.447,-1.9278522,2.2190022,8.425371,-0.035186604,-0.7036666,0.28625214,-11392.0,10748.5,-17789.5,
104.564,-1.0204496,2.951628,9.533886,-0.7358497,-1.0043696,0.20578044,-1152.0,13308.5,-21373.5,
104.679,0.6195784,2.2932224,10.953648,-1.232136,-0.95374168,0.1462261,12160.0,28157.5,-29053.5,
104.794,-1.2071974,5.5397596,10.61846,-1.2710396,-0.58042776,0.28904998,21376.0,-19714.5,27010.5,
104.917,2.7815426,-2.0259176,11.109271,-0.7879431,0.016048514,0.15701781,26752.0,-2562.5,16770.5,
105.035,1.9028706,-3.0865488,9.83795,0.16466024,0.84501332,0.229229152,23680.0,6397.5,15235.5,
105.152,0.33227424,-2.9692328,8.9880088,1.2323754,1.3045279,0.33434862,10368.0,4349.5,24963.5,
105.270,-1.3771858,-1.8607176,8.612119,2.0330952,1.1595722,0.42454616,-7808.0,-13059.5,-25213.5,
105.388,-2.741881,-2.4688446,10.39101,2.2834366,0.4876871,0.53299636,-22400.0,19964.5,-15997.5,
105.510,-2.56471,3.5046884,8.935336,1.68203084,-0.14223022,0.426411432,-23424.0,-13827.5,-19838.5,
105.628,-1.1952264,5.8534,8.95449,0.66787464,-0.5704354,0.3266212,-14720.0,31484.5,-28286.5,
105.741,0.5716944,6.3920956,8.320026,-0.6066154,-0.760956036,0.19179118,-3968.0,25084.5,30337.5,
105.857,1.3952998,4.8214992,7.534728,-1.90482068,-0.62572632,0.04656913,5248.0,-28162.5,-32382.5,
105.974,1.2468593,1.9771876,7.0798296,-2.6105466,-0.28278916,-0.0533543,10624.0,-2.5,-28542.5,
106.097,0.7488653,-0.17759377,7.290519,-2.435081,0.026440552,-0.048957672,11648.0,-25346.5,-28541.5,
106.214,1.3689635,-1.4465206,9.143632,-0.2744699,-0.4857003,0.16074829,9600.0,4093.5,28547.5,
106.330,9.166879,-3.5007458,8.930548,3.1458426,-1.2564432,0.34820464,14720.0,2045.5,25475.5,
106.448,7.0815288,4.5150412,8.777319,3.316778,-0.3739193,0.37138692,27520.0,26109.5,22914.5,
106.564,6.799013,8.063249,6.536346,2.1627292,0.674877,0.1731388,31872.0,-9474.5,15489.5,
106.677,4.6107124,8.017758,4.865193,0.6801319,0.3776381,-0.044827504,27264.0,-30978.5,10881.5,
106.798,5.05364,4.28041,4.6185904,-0.9086506,-0.041107684,-0.25066978,25728.0,30973.5,11137.5,
106.912,2.8868872,5.49427,6.083842,-2.0953412,0.09678665,-0.408149068,24192.0,-24322.5,19585.5,
107.028,2.561276,2.774457,7.606554,-2.3396874,0.3354038,-0.4333298,19072.0,1021.5,31874.5,
107.142,3.049693,-0.82402824,9.469243,-1.6526139,0.58587856,-0.3509929,12928.0,28413.5,-28541.5,
107.258,2.4870558,-1.1376686,10.443683,-0.8331085,1.0918907,-0.28824096,3456.0,-18178.5,-25469.5,
107.382,1.4527607,0.3634958,10.197081,-0.44007636,1.5717896,-0.25946304,-12416.0,-7427.5,-20861.5,
107.500,-0.57991668,1.1440055,6.93378368,-0.627133,1.6182873,-0.2835779,32384.0,-515.5,-16765.5,
107.616,-5.5981636,-2.7322068,10.910552,-0.28526164,0.5828142,-0.230551868,14464.0,7932.5,-18556.5,
107.734,-7.1543944,-4.0777484,12.497908,0.22141676,-0.5655058,-0.15794082,10112.0,12028.5,-22396.5,
107.851,-5.215091,-3.1535864,11.985549,0.75940456,-1.4990572,-0.08906027,18048.0,7164.5,-18812.5,
107.974,-0.57752248,-0.5822139,9.924141,1.04372,-1.90887652,-0.053620768,-25728.0,-6147.5,-19581.5,
108.089,1.5892301,-0.23026622,7.54909332,0.9632483,-1.4768076,-0.07120729,-1152.0,-23299.5,-27005.5,
108.207,2.4104414,0.3443422,5.966526,0.83094968,-0.3916391,-0.10491479,19584.0,27133.5,29570.5,
108.322,2.8174556,1.2613216,6.0694768,0.5519635,0.5040746,-0.15247835,24448.0,16893.5,27522.5,
108.437,2.3434036,2.6571412,6.203552,0.012110487,1.3774052,-0.244940832,16000.0,12285.5,-32381.5,
108.555,1.1127839,2.846283,8.585782,-0.6545786,1.901004,-0.3270113,-6528.0,12796.5,-20605.5,
108.675,-2.1888202,1.71861392,10.199474,-1.0699936,1.6747774,-0.39176164,30080.0,20988.5,-12157.5,
108.795,-5.74421,-0.412225536,10.683104,-1.1268834,0.64663196,-0.3362042,12416.0,-30723.5,-11645.5,
108.912,-6.208685,-3.2349894,10.9943496,-0.7068052,-0.9823864,-0.233083252,10368.0,-13827.5,-14717.5,
109.030,-4.286141,-4.151969,11.664726,0.2932284,-2.309636,-0.08732827,27264.0,-1283.5,-18557.5,
109.144,-0.34528488,-2.7633316,11.887386,1.2162544,-2.7227862,0.017125022,-10368.0,-6403.5,-24445.5,
109.268,4.0384984,-0.23026622,11.341509,1.6537858,-1.966166,0.054563,20096.0,-25346.5,23682.5,
109.384,5.1589848,2.9133208,10.041457,1.2425009,-0.52460384,-0.013118468,-24960.0,17661.5,2434.5,
109.501,4.6609908,3.6674944,8.774924,0.466295768,0.8379521,-0.16566824,-20096.0,4349.5,-2173.5,
109.618,2.5229688,3.40413216,6.799708,-0.486174336,1.74006068,-0.29410316,-27776.0,765.5,9602.5,
109.738,0.25087136,2.027466,6.052717,-1.3992082,2.0186474,-0.41174632,15744.0,8445.5,32642.5,
109.860,-1.4418292,0.3515248,6.560288,-1.8407364,1.6721127,-0.46170804,-11648.0,29948.5,-17277.5,
109.976,-3.1584718,-1.130486,7.3647392,-1.6619401,0.7853257,-0.40042168,30592.0,-9987.5,-16509.5,
110.092,-2.7586404,-2.9812038,8.894634,-0.8079278,-0.25307858,-0.229352768,22656.0,10492.5,-23676.5,
110.210,-3.029185,-4.757702,10.558604,0.3021549,-1.147993,-0.12050285,31104.0,17148.5,-29052.5,
110.325,-0.55836884,-3.895789,11.305595,1.2907307,-1.4469638,-0.005657519,-17280.0,9980.5,-30588.5,
110.448,2.3529804,-1.2669556,10.764506,2.0183064,-1.1001629,0.068552284,3456.0,-9474.5,-30589.5,
110.566,3.4591016,1.5989039,9.62726,2.018706,-0.12451045,0.036843248,17024.0,30461.5,32386.5,
110.682,1.7640068,3.595668,9.040681,1.2305101,0.761877,-0.08186579,17792.0,7165.5,32130.5,
110.796,0.82069132,4.4096968,8.849145,0.15213652,1.1330592,-0.174328268,7040.0,-8706.5,-31870.5,
110.913,-1.2670524,3.3777956,8.492409,-0.8337746,0.9815753,-0.31835124,-10112.0,-9987.5,-24446.5,
111.028,-2.365991,1.6587589,8.772531,-1.4409095,0.43066412,-0.364316,-24448.0,764.5,-16509.5,
111.152,-2.3827504,-0.3595531,9.150814,-1.4968666,-0.30130828,-0.34579688,-29056.0,22268.5,-13693.5,
111.268,-1.3939452,-1.8152278,9.55304,-1.0544056,-0.8122501,-0.27838184,-21888.0,-23043.5,-16253.5,
111.384,-0.35246748,-3.0386648,10.144408,-0.37452656,-0.9875824,-0.195112352,-9088.0,-8451.5,-22397.5,
111.501,0.5262046,-2.3347696,10.446077,0.35518092,-0.92269868,-0.12942934,3200.0,-3074.5,-30333.5,
111.617,1.2588303,-1.202312,9.91217,0.9740401,-0.68714592,-0.075470684,12416.0,-8194.5,29314.5,
111.743,1.4288186,0.5406667,9.002374,1.328968,-0.28025776,-0.044161344,19072.0,-25346.5,26242.5,
111.859,1.4455781,1.9125442,7.740629,1.1525699,0.1656672,-0.07094083,23168.0,19709.5,23938.5,
111.975,0.38734084,2.9085324,8.360727,0.6749359,0.59653708,-0.13555798,24192.0,2301.5,25474.5,
112.091,1.4982505,3.820723,8.003991,0.0787261,0.9539964,-0.204838224,17280.0,-3586.5,30337.5,
112.207,1.69457508,4.081691,8.542686,-0.38944846,0.9465355,-0.24827162,2944.0,-2050.5,-27006.5,
112.330,2.7480238,4.8334704,7.49163236,0.5512973,-0.9197677,-0.03803271,-9600.0,252.5,-21629.5,
112.446,3.511774,4.87896,6.028775,1.3029879,-1.8487892,0.11744814,5248.0,-13314.5,32129.5,
112.561,4.615501,5.7049592,4.8220972,0.51186084,-1.1775702,0.01912349,28800.0,-29698.5,10369.5,
112.677,6.186097,6.5860256,5.3129088,-0.53560316,-0.017259296,-0.13835584,-25216.0,32509.5,-1662.5,
112.794,6.6745144,6.9858576,8.075817,-1.627966,1.4921174,-0.31009088,-28288.0,-24322.5,6017.5,
112.910,3.98822032,4.6730584,11.482766,-1.8051636,2.1334924,-0.360052616,17536.0,-5122.5,29825.5,
113.035,-1.1473424,0.8399419,12.569735,-1.5044608,1.9016702,-0.3350051,-16768.0,19964.5,-15997.5,
113.152,-4.882297,-1.7769206,11.319961,-1.4594287,1.259762,-0.3331399,20608.0,-22019.5,-11645.5,
113.268,-6.1177052,-3.2493546,9.526704,-1.077588,0.021777458,-0.25160238,6016.0,-1027.5,-16253.5,
113.384,-4.3029004,-2.294068,7.7909068,-0.407035,-1.3724876,-0.15647529,9600.0,12284.5,-21628.5,
113.500,-2.7849764,-3.5701776,8.810838,0.34292364,-2.141365,-0.052688144,28032.0,15612.5,-25212.5,
113.622,0.5764828,-3.5941196,9.952871,1.1722881,-2.02612,0.04563651,-8832.0,6908.5,-32124.5,
113.736,3.8828752,-2.8183982,10.206657,1.7695638,-1.1250771,0.06921844,13952.0,-10242.5,23938.5,
113.854,1.1702448,0.8447303,16.893662,1.9186496,-0.15328838,0.0058003672,25472.0,32509.5,20098.5,
113.971,2.8246382,2.7481208,8.961672,1.316844,1.2015401,-0.05628539,23424.0,10493.5,24194.5,
114.087,0.50944516,0.389832032,9.833161,0.21302318,1.6743777,-0.12942934,9088.0,-5890.5,-32126.5,
114.211,-2.0930522,4.036201,7.398258,-1.1887027,1.3274435,-0.34912764,-11648.0,-2307.5,-20606.5,
114.328,-3.6947732,2.2022428,8.035116,-1.90575316,0.43559372,-0.39429304,-31104.0,19708.5,-12925.5,
114.445,-4.2598048,-0.864729664,9.0742,-1.8968268,-0.64957476,-0.36031908,28544.0,-19203.5,-11901.5,
114.561,-2.732304,-3.3954008,9.916959,-1.215349,-1.4622853,-0.26079536,-27008.0,3836.5,-24444.5,
114.677,0.32509164,-5.63398,9.679933,-0.02745919,-1.72301884,-0.12529917,-5760.0,16380.5,27011.5,
114.799,2.908435,-4.084931,9.069411,1.3402927,-1.2079469,0.00726591168,15232.0,14589.5,13955.5,
114.917,4.651414,-1.664393,7.68316836,2.103974,0.0381649,0.049500212,25472.0,765.5,13699.5,
115.032,3.8756926,1.76889232,7.486844,1.9983218,1.3706105,0.03391216,22400.0,-22530.5,23426.5,
115.151,2.1734154,3.844665,7.6711976,1.1489726,2.2625936,-0.10757942,1408.0,14589.5,-27261.5,
115.268,0.863787,5.0178236,8.312843,-0.09847145,2.2035722,-0.2504033,-28032.0,-1795.5,-17022.5,
115.383,-4.6237236,4.4815224,8.102154,-1.3384546,1.1914145,-0.354323636,11392.0,252.5,-14205.5,
115.507,-6.390644,1.4983475,8.851539,-2.019133,-0.372853468,-0.37484128,-384.0,23547.5,-12413.5,
115.624,-5.05468,-1.97803332,8.849145,-1.7635956,-1.72861468,-0.3015641,8064.0,-11779.5,-14973.5,
115.742,-4.640483,0.32279438,9.500367,-0.76755875,-2.6257936,-0.054953076,-30592.0,15356.5,-26748.5,
115.860,2.1446848,-3.79044432,8.56184,0.55063116,-2.1789362,-0.019247106,-2688.0,24060.5,25731.5,
115.977,4.277919,-2.2485784,9.689509,1.4603341,-0.87260384,0.0634895,16000.0,16893.5,14211.5,
116.098,5.0823704,0.03549017,10.091735,1.7990078,0.58081576,0.048567596,20608.0,-2306.5,16514.5,
116.215,3.1023656,2.8127642,9.931324,1.4847154,1.6229504,-0.021645268,11904.0,-25346.5,29826.5,
116.332,-0.014885008,4.653905,8.7414056,0.5002698,1.9838738,-0.14435124,-9088.0,20732.5,-23165.5,
116.449,-3.0483386,3.856636,7.417412,-0.8752096,1.5246258,-0.28104648,31872.0,15100.5,-13437.5,
116.564,-4.22868,2.6930542,7.8028784,-1.8701804,0.45264728,-0.3612517,12928.0,29436.5,-10877.5,
116.686,-4.118547,-0.3475821,8.626484,-2.0051436,-0.7606896,-0.3292762,11136.0,-8451.5,-15741.5,
116.801,-2.504855,-4.1615456,9.392629,-1.187104,-1.5841919,-0.21736196,22912.0,18172.5,-28540.5,
116.916,1.6059894,-6.704188,9.25137,0.27604156,-1.7192884,-0.054819844,-22656.0,30972.5,23171.5,
117.032,2.3769224,-5.1288032,9.794854,1.7537092,-1.1706421,0.09999485,-4992.0,27388.5,19331.5,
117.148,3.80386668,-1.7888916,9.972025,2.6286388,-0.339945368,0.16727664,6016.0,2045.5,25475.5,
117.267,3.7440116,2.621228,9.593741,2.5192558,0.5359168,0.119579836,8320.0,-30978.5,-31869.5,
117.389,2.3649514,5.803122,7.7526,1.3460215,1.2441741,-0.024976048,1664.0,1277.5,-28285.5,
117.505,0.2676308,6.9954344,6.4310008,-0.28712684,1.5013104,-0.22722108,-12160.0,-12291.5,-22398.5,
117.622,-0.73553976,5.2476672,6.682392,-1.89243016,1.2801465,-0.3898964,32128.0,-4099.5,-15230.5,
117.739,-1.3101482,2.6164396,8.150038,-2.9003246,0.8290255,-0.47130072,12160.0,25340.5,-9597.5,
117.856,-1.5615394,-0.8886717,8.880269,-2.9779982,0.2569306,-0.4521154,-384.0,6395.5,-20348.5,
117.977,-2.377962,-6.0840896,9.165179,-1.9778314,-0.31609696,-0.37310924,128.0,-23299.5,19587.5,
118.093,-1.7985654,-6.3666052,9.337562,-0.3538757,-0.89711832,-0.114374208,5760.0,-7683.5,-1916.5,
118.210,-1.0970642,-5.7728432,9.435724,1.3208408,-1.5263697,0.10692287,16256.0,-10243.5,-3708.5,
118.327,0.25326556,-3.2014704,9.327985,2.61385,-1.9509776,0.2906488,31616.0,-27395.5,14467.5,
118.442,2.0106096,0.06661479,8.53311,2.9388012,-2.0167938,0.3572644,-13952.0,7932.5,31107.5,
118.563,6.0472336,2.894167,5.6887984,1.98113484,-2.022123,0.25440988,11904.0,-28162.5,29826.5,
118.681,8.551569,3.38019,2.4398668,-0.20545616,-1.84332668,-0.06774328,-30592.0,23293.5,12162.5,
118.796,8.35285,2.585315,2.3776174,-1.5015297,-0.62386116,-0.3058275,-11904.0,27645.5,-6781.5,
118.912,9.071111,1.8574776,4.0152516,-1.9030886,0.9201557,-0.3901629,-7040.0,-27650.5,-12925.5,
119.029,9.260252,0.693895636,6.409453,-1.83633968,2.6538936,-0.41281216,-19072.0,-14338.5,386.5,
119.147,5.9969552,-1.0323238,10.7669,-0.76875776,2.7532842,-0.27451816,17024.0,2813.5,24707.5,
119.269,0.5501466,-1.937332,12.318343,0.22234938,2.2400776,-0.15341097,-14976.0,7932.5,-24444.5,
119.388,-3.812089,-1.202312,12.169903,0.53131264,1.9301818,-0.12410009,18816.0,2556.5,-18044.5,
119.505,-6.4768352,0.0785858,10.455654,0.37116868,1.3195829,-0.086795348,-6016.0,-6916.5,-18301.5,
119.621,-5.9956008,1.1104868,8.130884,0.020504058,-0.062158228,-0.14661618,-19328.0,-11780.5,-19581.5,
119.738,-2.449788,2.2788572,6.2945312,-0.56411464,-1.2341934,-0.19471266,-15744.0,-10500.5,-19069.5,
119.877,-0.33091962,1.0841506,4.9657492,-1.4987318,-1.698904,-0.31049058,8832.0,3068.5,-19836.5,
119.994,-0.16811394,-1.2094948,6.5171924,-1.2770351,-1.420584,-0.28717512,29824.0,24060.5,-32380.5,
120.111,0.5932422,-3.220624,9.019133,0.009312615,-1.1149515,-0.04669274,-18048.0,-29955.5,16515.5,
120.225,3.4782552,-4.5661656,12.16272,1.2755422,-0.39150584,-0.013917856,-6016.0,-30723.5,13187.5,
120.341,3.53332184,-2.5167288,13.053363,1.9686112,0.45104856,0.030581378,-3456.0,20732.5,24195.5,
120.466,1.1415144,1.3283591,10.908158,1.90599252,1.1924803,-0.007123063,-12672.0,-6915.5,-25725.5,
120.585,0.89251748,-3.469621,6.4956448,1.0862208,1.3330393,-0.11917054,-30336.0,26620.5,-15229.5,
120.702,-3.517602,4.306746,7.644861,-0.033454596,0.5894758,-0.22535584,23680.0,11772.5,-12669.5,
120.817,-3.2446632,3.9308564,7.8675224,-1.1055664,-0.23336036,-0.31995,21120.0,15868.5,-10109.5,
120.933,-1.7794118,2.0011298,8.391852,-1.75320352,-0.8740694,-0.37417512,23424.0,-27651.5,-11133.5,
121.056,0.17425692,-0.5726371,8.837173,-1.78198136,-1.0771139,-0.37390864,-32640.0,-259.5,-19069.5,
121.173,0.9619492,-2.306039,8.535504,-1.0834501,-0.52633584,-0.336070968,-19584.0,18940.5,31107.5,
121.290,2.4942384,-4.2932268,9.632049,-0.0022784918,0.22055846,-0.23015218,-11136.0,28924.5,19587.5,
121.407,1.8214676,-3.0338764,10.182715,0.99815496,0.788390036,-0.13835584,-10112.0,27644.5,23683.5,
121.526,0.021027982,-0.24463144,10.189898,1.5861043,1.0323364,-0.08279841,-20864.0,15868.5,-29052.5,
121.649,-2.8089184,8.8605176,10.256935,1.3450891,0.7163119,-0.1360909,28800.0,-9731.5,-17277.5,
121.766,-4.2454396,2.4464514,10.908158,0.8706526,-0.12624244,-0.14181985,21888.0,-32259.5,-13181.5,
121.884,-3.979683,2.5901034,11.197857,0.31987464,-0.9588044,-0.17499442,30080.0,18428.5,-12669.5,
122.000,-1.5304148,2.1016862,10.719016,-0.16002427,-1.4263129,-0.2192272,-17280.0,16636.5,-15229.5,
122.117,1.3234737,1.9747934,9.349533,-0.6916169,-1.2945472,-0.2819791,1152.0,22269.5,-21373.5,
122.233,3.7224638,1.2996287,10.0630048,-1.0242954,-0.52673552,-0.4184079,13184.0,32509.5,-29565.5,
122.359,2.963502,-0.6731935,9.749365,-0.86401816,0.43679272,-0.3647157,14464.0,-23298.5,29058.5,
122.474,1.5365577,-1.259773,9.735,-0.4859079,0.9958311,-0.34153344,9344.0,-16386.5,30850.5,
122.588,-0.55118624,-1.2071006,9.34235,-0.050374956,1.1073456,-0.30049824,128.0,-14594.5,-27773.5,
122.705,-2.3252898,-0.745019568,8.4134,0.29202932,0.72244056,-0.25679842,-11136.0,-14339.5,-20605.5,
122.823,-2.2486754,-0.5726371,8.6695792,0.5218532,0.028039326,-0.19551204,-19072.0,-17923.5,-16765.5,
122.945,-1.7171626,0.399408832,9.58177,0.63056992,-0.4607861,-0.1748612,-19328.0,-26883.5,-16765.5,
123.063,0.03299904,0.959652,10.113283,0.58340604,-0.5948167,-0.17526088,-12416.0,24828.5,-18813.5,
123.184,0.2652366,3.928462,10.484385,0.36903696,-0.47650736,-0.2320174,-2432.0,13820.5,-22397.5,
123.302,1.5365577,1.69946032,9.469243,0.12429118,-0.10452576,-0.2430756,4736.0,8189.5,-26749.5,
123.419,0.69379864,2.0346486,9.045469,-0.25195384,0.29823226,-0.29476932,6272.0,7933.5,-27517.5,
123.542,-0.27345878,1.5893271,9.296861,-0.5703765,0.41840684,-0.33194084,128.0,13053.5,-22909.5,
123.658,-0.8720092,0.5071479,9.634443,-0.64005644,0.33913428,-0.33367284,-8320.0,20732.5,-20605.5,
123.774,-0.8959512,-0.4433502,9.723028,-0.43821108,0.17219554,-0.3046284,-14976.0,27388.5,-17533.5,
123.889,1.0672941,-1.7769206,10.802814,-0.08141784,0.04149568,-0.237879584,-16512.0,29436.5,-16765.5,
124.006,0.27960178,-0.452927,9.375869,0.24566484,-0.09906328,-0.22642168,-15488.0,28156.5,-17277.5,
124.127,0.13834387,1.2086489,9.380657,0.33919316,-0.06255791,-0.21936042,-12160.0,21756.5,-16765.5,
124.244,-1.1736786,1.5605967,9.493185,0.19716868,0.016981134,-0.2401445,-8832.0,17404.5,-16253.5,
124.361,-0.031644464,2.2860398,10.52748,0.13108598,-0.028717182,-0.25493316,-8064.0,15868.5,-16253.5,
124.478,0.22932354,2.123234,11.082934,0.34971844,-0.14835884,-0.26039564,-9088.0,13564.5,-17789.5,
124.595,0.293967,2.204637,11.228981,0.52331876,-0.22190248,-0.26692396,-8832.0,6652.5,-19069.5,
124.716,-0.18247914,2.4703934,10.934494,0.43831724,-0.22936342,-0.2845105,-6272.0,-4611.5,-23422.5,
124.834,-0.36683268,2.180695,10.24257,0.31307984,-0.232427732,-0.30822566,-2688.0,-14083.5,-26750.5,
124.951,-0.53442676,2.3339238,9.2346116,0.3666388,-0.232427732,-0.3059607,1408.0,-20226.5,-29310.5,
125.068,-0.38598628,3.0186656,8.317632,0.497605152,-0.1009285,-0.30063146,4992.0,-26882.5,-32638.5,
125.186,-0.08910525,3.7441086,7.4126232,0.38342596,0.14768097,-0.32301436,5248.0,-32514.5,29825.5,
125.310,0.2963612,3.9883172,8.068635,0.101242184,0.5745539,-0.36618124,-1664.0,27900.5,28801.5,
125.426,-0.407534036,3.78720416,8.547475,-0.29725248,0.83235632,-0.40641708,-12672.0,25596.5,30849.5,
125.545,-1.8344784,3.698619,8.707887,-0.6327287,0.626514,-0.43905872,-26496.0,28156.5,-28030.5,
125.659,-3.1105878,3.2628742,8.3990344,-0.6976123,0.06840839,-0.433463,29056.0,-31235.5,-22910.5,
125.774,-3.57745736,1.800017,8.746194,-0.6885526,-0.8299698,-0.408149068,29824.0,-23043.5,-17278.5,
125.893,-1.9278522,0.40419724,10.180321,-0.420891,-1.2667018,-0.3523252,-22400.0,-12291.5,-16766.5,
126.015,0.12876708,0.5023595,10.007938,-0.3357563,-1.3334508,-0.33673712,-5248.0,-3331.5,-21374.5,
126.131,3.1717972,-0.431379136,9.768518,-0.372927768,-1.0002394,-0.31422108,7808.0,253.5,-27005.5,
126.250,3.097577,-0.12970975,8.746194,-0.494168232,-0.19432362,-0.38483364,14976.0,1789.5,32642.5,
126.368,2.513392,-0.797692,9.105324,-0.3801223,0.6459658,-0.39948908,17024.0,2813.5,-31869.5,
126.481,2.5205746,-1.5159526,9.2394,-0.103267776,1.1875508,-0.39042932,9856.0,5885.5,-25725.5,
126.604,-0.0005198121,-1.6811524,9.464455,0.23873682,1.315053,-0.36205108,-7296.0,7420.5,-17021.5,
126.720,-2.018832,-1.0490832,9.047863,0.5085301,1.0231434,-0.3280771,-27520.0,3324.5,-13949.5,
126.835,-1.5040786,-2.6005258,8.600147,0.5827399,0.185252184,-0.33167436,24448.0,-8451.5,-15486.5,
126.953,-2.2845884,0.87585496,9.397417,0.5366419,-0.43893616,-0.28517666,25216.0,-21763.5,-18558.5,
127.069,-0.67329052,1.3451185,10.6017,0.33532948,-0.6550372,-0.29823332,32384.0,-27139.5,-20350.5,
127.190,0.49986832,1.4624343,11.626419,0.056343256,-0.5741659,-0.32354724,-27008.0,-28163.5,-22142.5,
127.307,1.2516477,1.6922776,11.729369,-0.19253274,-0.26973248,-0.36231752,-24448.0,-28675.5,-25726.5,
127.426,1.4264244,1.0099302,11.319961,-0.350145232,0.19311284,-0.38629916,-24192.0,-29699.5,-24190.5,
127.545,0.760836336,0.15759446,10.879428,-0.3101759,0.54284484,-0.39389332,-27520.0,-26371.5,-20350.5,
127.662,-0.9390469,-1.0131702,10.25933,-0.0429140184,0.5563012,-0.36218432,30336.0,-19715.5,-17278.5,
127.785,-2.600623,-1.568625,9.524309,0.453505568,0.09905158,-0.2918382,20608.0,-18691.5,-18302.5,
127.900,-2.387539,-4.748125,9.229823,0.911821,-0.7329775,-0.25519964,18304.0,-29187.5,-21886.5,
128.013,-1.700403,0.27491032,9.95766,1.0752958,-1.1124202,-0.18645232,27520.0,20732.5,-28542.5,
128.129,0.76323052,2.2788572,10.359886,0.8930354,-0.97492548,-0.19804344,-20864.0,5884.5,25729.5,
128.245,2.884493,3.58848536,9.576982,0.3447889,-0.419217952,-0.27784892,-11904.0,-515.5,15744.5,
128.368,3.0760292,3.284422,8.537898,-0.5829002,0.5489735,-0.41787496,-15232.0,-2563.5,12672.5,
128.483,1.69696932,2.1160514,8.250594,-1.2947549,1.2857422,-0.5216622,-28544.0,3836.5,21889.5,
128.600,-0.62061804,0.32518858,8.236229,-1.5770718,1.491318,-0.5555029,18304.0,19196.5,-29310.5,
128.716,-2.389933,-1.355541,8.363122,-1.2471912,1.017681,-0.50127776,-1152.0,-23300.5,-20094.5,
128.831,-4.0993932,-2.4089896,9.107718,-0.58050204,0.12329966,-0.38616596,-13440.0,-4100.5,-20350.5,
128.948,-4.0132016,-2.5741896,9.998362,0.16892364,-0.7790755,-0.27371874,-16256.0,5627.5,-19069.5,
129.070,-2.624565,-1.556654,10.584941,0.86385784,-1.3707556,-0.16580148,-7296.0,2043.5,-17021.5,
129.186,-0.402745668,0.18153646,10.211446,1.2399696,-1.4281781,-0.10771265,9344.0,-12291.5,-16254.5,
129.306,1.5197983,1.6683357,9.241794,1.1024749,-0.97026232,-0.12050285,30848.0,31740.5,-22910.5,
129.423,2.561276,2.2501268,8.643243,0.4693601,-0.12784124,-0.215629952,-21888.0,18172.5,-31614.5,
129.539,2.0225806,2.3027992,9.002374,-0.1861376,0.6992583,-0.31248906,-20608.0,13564.5,32641.5,
129.661,0.5238104,1.3020229,10.0151208,-0.61074552,1.1886166,-0.362584032,31872.0,18428.5,-29054.5,
129.780,-1.7099798,-0.31166908,10.936889,-0.627133,1.2000746,-0.3561889,15232.0,27644.5,-25214.5,
129.896,-3.0196082,-1.604538,10.826756,-0.25235356,0.76720624,-0.29943236,-1152.0,-27908.5,-24190.5,
130.013,-3.42901668,-1.8032568,11.568957,0.3453218,0.09412202,-0.20230684,-13440.0,-25092.5,-27006.5,
130.130,-2.2390986,0.13844084,12.272853,0.5806082,-0.19818732,-0.14728233,-16512.0,-29444.5,-29822.5,
130.253,-0.48654276,2.9612048,11.066175,0.456303432,0.2526672,-0.10038493,-16256.0,29691.5,31617.5,
130.372,-2.6197764,2.8869844,7.546699,-0.13617592,2.042096,0.010330229,-22144.0,24315.5,27265.5,
130.488,-3.73068616,1.4911649,2.7798434,-0.94848668,3.7988832,0.11358444,23168.0,26875.5,9857.5,
130.608,-6.6061224,0.03309597,-3.1098928,-1.0600014,3.0904928,0.16754308,-1152.0,31738.5,-29310.5,
130.725,-7.266922,-0.5558776,-0.34219572,-0.46472412,0.4578433,0.26893208,-7040.0,30970.5,4481.5,
130.846,-9.416915,-3.57257184,2.3417044,-0.25035506,-1.5447554,0.3243563,-3968.0,24570.5,1921.5,
130.964,-8.4568408,1.0458434,1.3265629,-0.12231983,-3.3140664,0.465048436,2176.0,19963.5,29057.5,
131.083,-5.437752,1.4432807,8.638454,-0.23969658,-3.682984,0.5766962,25216.0,16891.5,5761.5,
131.200,-2.6987852,2.3937788,10.307214,-0.07249136,-1.864244,0.69753692,-2176.0,15867.5,-32638.5,
131.316,1.0672941,3.0162714,11.616842,-0.3628022,-1.4947938,0.7160561,22912.0,17148.5,-28542.5,
131.432,-3.0627038,3.0402134,9.43333,-1.0216308,-1.6270924,0.65143896,-20608.0,25340.5,-27262.5,
131.554,2.5828238,-0.8072688,8.097365,-1.6435542,-1.0219561,0.47917096,1152.0,-17922.5,-25726.5,
131.671,2.0225806,-2.2078768,5.660068,-1.4174608,-0.43680448,0.4721097,12928.0,8189.5,-27005.5,
131.787,1.3905114,-2.6196794,4.759848,-0.58543164,-0.233893292,0.55418016,16256.0,29949.5,-30077.5,
131.905,3.1646146,-4.4344844,9.624866,0.25672304,0.15114498,0.62559208,18048.0,-26114.5,31618.5,
132.022,2.8988584,-5.1431684,14.422846,1.0748961,0.55190456,0.67049104,14464.0,-27394.5,-30845.5,
132.146,2.6833802,-2.7082648,13.66149,1.74438308,1.1084114,0.6648953,2176.0,22525.5,-22909.5,
132.264,-0.065163252,1.0290838,11.109271,1.5849053,1.0705737,0.6251924,-9856.0,764.5,-20605.5,
132.381,-2.315713,2.822341,7.08701236,0.79537692,0.7151128,0.51580952,-20352.0,-18179.5,-22654.5,
132.497,-1.877574,1.4863763,5.585848,0.034493328,-0.04617048,0.440000984,-25984.0,-26627.5,-24702.5,
132.613,-1.8967276,0.44011028,9.797249,0.050747544,-0.9418841,0.4511924,-22144.0,-26371.5,-23934.5,
132.735,-0.9582005,0.9644404,12.792395,0.08338919,-0.9755916,0.46038536,-8064.0,-26371.5,-30078.5,
132.850,0.4424075,4.206189,14.68142,-0.14243777,-0.6286574,0.42614492,3456.0,-25858.5,28289.5,
132.964,4.4191768,0.892614336,13.017449,-0.51495224,-0.031914732,0.3510025,11648.0,-22274.5,24961.5,
133.082,2.3745282,-0.10337353,9.732605,-0.7048068,1.0396642,0.2894497,9856.0,-12802.5,30081.5,
133.198,-0.20163274,-0.237448816,6.0575056,-0.5485265,1.6190868,0.3014405,-2432.0,-2051.5,-23934.5,
133.321,-1.0683339,0.18871908,3.65851552,-0.60928004,0.9165585,0.29184782,-20608.0,6908.5,-14973.5,
133.439,-2.3707796,-0.440956,6.4573376,-0.5202815,-0.0089989568,0.32089228,-31872.0,19196.5,-11133.5,
133.555,-3.242269,-1.5662308,10.266512,0.022502526,-0.8903236,0.39257064,-30592.0,28412.5,-12669.5,
133.671,-2.1217826,-2.8088214,12.912105,0.6437598,-1.3892746,0.4659811,-19072.0,27644.5,-17533.5,
133.788,0.71055808,-2.006764,13.323908,0.98696344,-1.3546345,0.488497136,-2432.0,18940.5,-25213.5,
133.912,3.085606,-0.23266042,11.41094,1.1348502,-0.7092623,0.4733088,15744.0,5373.5,28034.5,
134.027,2.941954,1.3738489,7.93456,0.90942296,0.5669597,0.413621216,24448.0,-6402.5,20353.5,
134.143,1.4264244,2.3794136,7.9058296,0.16172916,1.482658,0.3082353,18304.0,-14338.5,22145.5,
134.259,0.7536537,2.4919412,9.725423,-0.52387876,1.590442,0.23975442,640.0,-13826.5,-30590.5,
134.375,-3.338037,1.5390489,11.15955,-0.930767,1.0477911,0.19765334,-17792.0,-4611.5,-20350.5,
134.497,-5.0642568,-0.36912992,11.492343,-0.96887108,0.1733946,0.21004385,-29824.0,8956.5,-15229.5,
134.621,-3.859973,-1.5638366,10.860274,-0.60048676,-0.811051,0.28118932,-30336.0,25340.5,-13949.5,
134.737,-1.295783,-1.439338,9.497973,-0.062099308,-1.502388,0.35499944,-17024.0,-30979.5,-18301.5,
134.852,1.2348883,-0.28054446,8.090182,0.32973376,-1.6061752,0.4088249,2432.0,-30210.5,-25981.5,
134.968,2.2979138,0.3611016,7.26657732,0.3606434,-0.9905135,0.37551708,19840.0,-31234.5,28802.5,
135.084,2.8054846,0.87585496,7.56106432,0.26458368,-0.0509668,0.34607296,29312.0,32253.5,20866.5,
135.208,2.3793166,0.7752985,8.530716,0.24020236,0.7946519,0.3231572,26752.0,32253.5,22914.5,
135.323,1.0888419,0.6579826,9.114901,0.2335408,1.2173945,0.31662884,16768.0,31485.5,31362.5,
135.439,-0.50090796,0.6053102,9.397417,0.18624372,1.3202491,0.30370542,640.0,29693.5,-23677.5,
135.555,-1.367609,0.40898564,8.95449,0.1341503,1.1198694,0.30676976,-16512.0,28668.5,-16253.5,
135.670,-1.3628206,1.3546953,8.123701,0.025833308,0.60679584,0.29864264,-31360.0,27132.5,-13437.5,
135.793,0.1431323,1.9316978,7.893858,0.079392252,-0.3931046,0.31782794,27776.0,27132.5,-11389.5,
135.908,1.4000882,2.5278542,8.178768,0.2847016,-1.3223926,0.34913728,-29568.0,25084.5,-12157.5,
136.025,3.0544816,3.3658248,8.425371,0.030496388,-1.3125334,0.3350148,-11904.0,21500.5,-17021.5,
136.141,4.1246896,3.4544104,9.26813,-0.61367668,-0.55031748,0.24082028,2944.0,23293.5,-24701.5,
136.257,4.0528636,2.1375992,11.058992,-0.9879232,0.391227636,0.1889933,8832.0,-30210.5,-28285.5,
136.374,2.2476356,-0.452927,12.205815,-0.76556024,0.98250792,0.198319508,1152.0,-15362.5,-27005.5,
136.498,-0.26388198,-2.3850476,11.884993,-0.23116974,1.1748938,0.2392215,-14464.0,-3587.5,-24189.5,
136.615,-1.9039102,-2.353923,10.666344,0.4301901,0.8735248,0.29810974,-31360.0,-1539.5,-20605.5,
136.730,-2.1409362,-0.6684051,9.533886,0.95365568,0.20776826,0.358197,22912.0,-8963.5,-16765.5,
136.844,-1.2909946,1.1152752,9.237005,0.9846986,-0.402164336,0.3631266,20352.0,-23811.5,-13693.5,
136.963,-1.09467,2.4751818,8.992797,0.49747188,-0.75775852,0.32422304,27264.0,28412.5,-12413.5,
137.084,0.4352249,2.834312,9.316014,-0.241428568,-0.7870694,0.24588306,-26752.0,22524.5,-13181.5,
137.200,1.5509229,2.2549152,9.840344,-0.911715,-0.53712756,0.16474522,-16512.0,28668.5,-15997.5,
137.316,0.5285988,1.99873568,10.28806,-1.2974194,-0.15795148,0.11504998,-11392.0,-22275.5,-21373.5,
137.433,0.5501466,-0.6300979,11.228981,-1.1851054,0.17139614,0.106389952,-11648.0,-2307.5,-28285.5,
137.551,-0.69004992,-2.6962938,11.679091,-0.6343275,0.25186784,0.1586166,-15232.0,13052.5,-31868.5,
137.673,-1.5016844,-3.8550876,11.116454,0.21169088,0.053619724,0.23762272,-19328.0,20732.5,29571.5,
137.790,-1.4298582,-2.923743,10.450866,1.0517138,-0.29038334,0.3198264,-21376.0,15612.5,-32636.5,
137.907,-0.50330216,-0.4720806,9.500367,1.5148256,-0.5773634,0.3632598,-19072.0,1020.5,-27260.5,
138.022,0.58605964,1.9316978,8.389458,1.3414918,-0.5792287,0.33967788,-12672.0,-19459.5,-23677.5,
138.138,2.1590502,3.4448336,7.338403,0.50226824,-0.24042164,0.2200362,-5504.0,29692.5,-24189.5,
138.259,2.5469108,3.8039636,7.4892384,-0.63179608,0.16460136,0.09653084,-1920.0,27388.5,-23677.5,
138.375,2.7288702,3.236538,8.303267,-1.3842862,0.24400716,0.021921348,-3712.0,-26371.5,-22909.5,
138.491,2.6043716,1.4313097,9.684721,-1.3637686,-0.012995895,0.05642824,-6272.0,-6403.5,-25469.5,
138.608,2.7121108,-0.7641732,11.039839,-0.66150668,-0.23149512,0.1560852,-6272.0,11516.5,32387.5,
138.724,2.0225806,-1.7529786,12.303978,0.055277408,-0.114917784,0.24574982,-5248.0,20732.5,25987.5,
138.843,1.5078273,-1.1280918,12.560157,0.55222992,0.058682512,0.28798416,-5760.0,19708.5,26499.5,
138.966,1.0481405,0.59573332,10.939282,0.9107552,0.15940532,0.33008522,-9600.0,12028.5,32131.5,
139.083,2.1829922,2.1088688,8.317632,1.0350599,-0.1119867,0.36206072,-12416.0,508.5,-25980.5,
139.200,2.5804296,2.0466196,6.2346764,0.7059788,-0.34927154,0.33208368,-10880.0,-13059.5,-22397.5,
139.319,1.0313811,1.4193387,9.169968,0.44537848,-0.92269868,0.30996728,-4480.0,-20227.5,-23933.5,
139.436,3.7104928,0.8231825,8.480437,0.50373376,-1.2389898,0.31782794,7296.0,-24578.5,-28285.5,
139.558,6.636207,1.3786373,5.5906364,0.014775112,-0.827172,0.24694892,21888.0,-27906.5,27010.5,
139.674,6.5069204,1.5151069,4.281008,-0.48311008,0.28877288,0.19965182,27776.0,-23554.5,18818.5,
139.791,5.4726252,0.3443422,5.743865,-0.5589186,1.6353409,0.18672838,20352.0,-14850.5,23426.5,
139.907,3.0784236,0.447292868,10.074976,-0.42302276,2.6440346,0.201650284,-2944.0,-7171.5,-27773.5,
140.026,1.0050449,0.5215131,10.831544,-0.33375782,2.5659612,0.2183042,22912.0,-1539.5,-17533.5,
140.148,-1.3484554,-2.1121088,12.8570384,-0.3052463,2.0551526,0.20138382,-10624.0,1019.5,-23420.5,
140.267,-6.898215,0.0043655484,9.809219,-0.387449968,0.8987055,0.23482486,29568.0,1531.5,30339.5,
140.384,-4.906239,-0.050701096,8.331997,-0.4703198,-0.724051,0.26067172,21376.0,2043.5,22147.5,
140.498,-3.290153,-0.168016976,8.545081,-0.3711958,-1.9387204,0.28718474,30080.0,4347.5,27267.5,
140.615,-1.5519626,-0.31885168,9.37108,-0.210518916,-2.4696468,0.3151633,-13440.0,7163.5,-29564.5,
140.737,0.4495901,-3.40258332,10.3335496,0.13614876,-2.429278,0.20151706,18048.0,11260.5,-27260.5,
140.855,4.0744116,-1.2286484,10.505932,0.40007984,-1.4965258,0.352734532,-22400.0,12028.5,-30332.5,
140.973,5.249964,-0.6755877,9.790066,0.6128501,-0.34340936,0.3462062,-8576.0,9980.5,29827.5,
141.087,4.8668924,-0.0004228577,8.995191,0.6354995,0.9971634,0.32782028,-9856.0,3580.5,-32892.5,
141.202,3.77513632,0.892614336,7.60416,0.49747188,2.3108234,0.2906488,-28544.0,-5123.5,-22653.5,
141.320,0.478320536,1.76649808,8.159615,0.13668169,2.9867056,0.23189378,3456.0,-14595.5,-17021.5,
141.445,-4.583022,1.9676108,8.420583,-0.29938418,2.272053,0.20498108,32384.0,-19972.5,-28541.5,
141.561,-8.277275,1.1990721,8.674368,-0.658842,0.7430914,0.181798832,12416.0,-18436.5,19586.5,
141.676,-7.5326784,0.397014632,8.803655,-0.8335082,-1.0883052,0.21763804,8832.0,-13572.5,12418.5,
141.793,-4.0539036,-0.4744748,8.858722,-0.7722218,-2.5863574,0.2524114,17536.0,-5892.5,20866.5,
141.907,-0.1417777,-0.9844398,9.043075,-0.5004301,-3.0951674,0.2878509,-23680.0,2555.5,-30076.5,
142.027,2.896464,-1.010776,8.856327,-0.10060315,-2.3293544,0.31769472,11392.0,7932.5,-26492.5,
142.142,6.3656624,-1.5901728,9.406994,0.2190186,-0.800659,0.34394128,-31104.0,7932.5,-30588.5,
142.257,6.207645,-1.5375004,9.605712,0.60871992,0.7240393,0.345140336,-24448.0,6140.5,-31356.5,
142.373,4.0648348,-1.3603294,8.774924,1.047717,1.97588,0.3589964,29568.0,-2819.5,-23933.5,
142.487,1.1415144,-0.5846081,7.48445,1.4203646,2.669082,0.3748509,3456.0,-19715.5,-16253.5,
142.608,-1.2119858,0.8590956,6.9026584,1.2971257,2.5914082,0.34074372,-30592.0,21499.5,-24701.5,
142.725,-2.9621474,3.1862598,6.6632384,0.6445592,1.5933731,0.26680036,11648.0,2555.5,18562.5,
142.842,-5.1289,4.5509544,8.33918,-0.36346836,0.12689692,0.19259056,1408.0,-6148.5,129.5,
142.958,-5.856737,5.1327452,10.788448,-1.4315833,-1.3686238,0.11704845,2432.0,-3844.5,2945.5,
143.075,-3.9150396,3.035425,12.55058,-2.238565,-2.404497,0.059892252,16512.0,13819.5,24194.5,
143.190,0.3131206,-0.39307192,12.478754,-2.4136308,-2.5613098,0.037775868,-23168.0,-22020.5,-24445.5,
143.312,3.7775304,-3.586937,11.260106,-1.83820516,-1.78696984,0.08813727,4480.0,10748.5,-28796.5,
143.431,5.4127704,-4.271679,8.959278,-0.7041406,-0.30730372,0.15595198,20352.0,-31491.5,21123.5,
143.546,5.12786,-4.3722352,7.4413544,0.420331,1.189416,0.26040528,16256.0,-23043.5,17539.5,
143.660,3.9570956,-3.673128,6.8188616,1.4375515,2.3693118,0.33834556,-128.0,-27396.5,23683.5,
143.779,1.72569968,-1.5494714,6.9553316,2.014443,2.9868386,0.36299332,-29056.0,17147.5,27779.5,
143.903,0.021027982,-2.4089896,5.3967056,-0.16442092,1.93977424,-0.05188876,6272.0,-9476.5,13442.5,
144.021,-3.0818574,-1.7984684,6.656056,-2.3847196,-0.3144982,-0.38629916,-6016.0,-5893.5,-7805.5,
144.137,-4.525561,-5.3945592,6.3950876,-1.6490166,-1.4606867,-0.2729194,-1152.0,14074.5,-17788.5,
144.253,-2.6485068,-6.2875968,6.0694768,-0.12018816,-2.5248046,-0.13755645,12416.0,25595.5,-11900.5,
144.371,-1.415493,-5.49751,7.106166,1.1361824,-2.9419516,-0.0095212252,-32128.0,25595.5,11651.5,
144.491,1.4647317,-4.092114,7.7549944,1.0872866,-1.7752456,-0.109311424,-384.0,11771.5,-28796.5,
144.610,4.057652,-2.4975752,9.983996,0.69825132,-0.039242448,-0.23401586,18304.0,-771.5,-21117.5,
144.726,3.69852184,-1.97324492,10.63522,0.8048364,1.2929367,-0.27611694,15744.0,-10243.5,-17533.5,
144.845,1.5197983,-1.7290366,10.175532,0.94726056,2.14535,-0.29849976,-3968.0,-22788.5,-14973.5,
144.961,-1.0611513,-0.61812684,8.03751,0.809233,2.2522016,-0.34499748,-29568.0,30203.5,-23677.5,
145.076,-2.7035736,-0.7929036,7.168415,0.73435704,1.6202858,-0.3701782,13184.0,19963.5,25474.5,
145.198,-2.5575272,-0.12252714,7.786119,0.8273524,0.26172692,-0.32621188,1152.0,13819.5,9858.5,
145.314,-6.3451544,3.0497902,11.954424,0.3567797,-1.0075672,-0.337803,128.0,9979.5,8578.5,
145.430,-4.640483,3.80156936,13.378974,0.028098226,-1.776578,-0.32394696,10368.0,11259.5,21634.5,
145.548,-0.63019484,2.9205034,11.68388,-0.167352,-1.9387204,-0.31235584,28288.0,14587.5,-28029.5,
145.664,1.8908994,1.0602086,8.762954,-0.4414087,-1.2888184,-0.3383359,-15744.0,20731.5,-18045.5,
145.785,0.20777574,0.7561449,4.5132456,-0.749306,-0.077213352,-0.39775704,-1664.0,-31492.5,-12925.5,
