# epoch_start_s=1609459683
timestamp_s,accel_x,accel_y,accel_z,gyro_x,gyro_y,gyro_z,mag_x,mag_y,mag_z,wind_vane_deg
# wind_vane_deg is blank for the first 270 s, populated for the final 30 s
0.118,-1.9901016,1.9245152,9.464455,-0.00361080468,0.0033915452,-0.001793813,-32384.0,-15363.5,-29822.5,
0.236,-1.9637654,1.8933906,9.349533,-0.00014679134,-0.0014047772,0.001004043,-32640.0,-15107.5,-28798.5,
0.353,-2.042774,1.87423716,9.347138,-0.00067971648,-0.0012715459,0.0012705056,32640.0,-15619.5,-29566.5,
0.471,-2.030803,1.9197268,9.347138,-0.0045434236,0.005256787,-0.0020602756,-32384.0,-15107.5,-29566.5,
0.593,-2.0044668,1.886208,9.296861,-0.0029446482,0.005123552,-0.0028596632,-32384.0,-15363.5,-30334.5,
0.708,-2.0331972,1.886208,9.397417,-0.00028002262,-0.000205695632,0.00020465534,32640.0,-15363.5,-29310.5,
0.827,-1.9924958,1.934092,9.337562,-0.012936994,0.009786647,-0.005124594,32640.0,-14595.5,-29054.5,
0.942,-2.0020726,1.9652166,9.35911,0.00518246,0.00059369208,0.0034022052,-32384.0,-15363.5,-30334.5,
1.058,-1.9924958,1.85029508,9.392629,-0.00028002262,-0.0011383183,-6.180722e-05,-32128.0,-15363.5,-29310.5,
1.183,-2.0403798,1.84311252,9.418964,-0.0062754304,0.0063226336,-0.00698983136,-32640.0,-15619.5,-28542.5,
1.302,-2.0451682,1.82156468,9.383052,-0.004809886,0.0040577016,-0.0043252064,-32640.0,-15875.5,-29054.5,
1.420,-2.1098116,1.8838138,9.421359,-0.012803763,0.010053109,-0.0016605817,-32384.0,-16131.5,-29054.5,
1.537,-1.99489,1.9747934,9.356715,-0.0037440508,0.006189406,-0.0021935068,32128.0,-15875.5,-28798.5,
1.658,-1.925458,1.9604282,9.428541,-0.0014791042,0.0012598485,-0.0020602756,-32384.0,-15875.5,-29310.5,
1.776,-2.0355914,1.946063,9.406994,-0.0030778944,0.0003272295,0.001004043,-32640.0,-15875.5,-29310.5,
1.891,-1.937429,1.9149384,9.430936,-0.010272369,0.0064558648,-0.0043252064,-32384.0,-15363.5,-28798.5,
2.008,-1.9398232,1.9676108,9.404599,-0.0004132688,-7.246435e-05,0.0035354364,-32640.0,-15875.5,-28542.5,
2.124,-2.0810812,1.78086332,9.366292,-0.0064086468,-0.0019377023,-0.0013941191,-32384.0,-15875.5,-29310.5,
2.250,-1.805748,1.98676468,9.351927,-0.0017455816,-0.0070004872,0.00073758052,-32640.0,-15619.5,-28798.5,
2.367,-2.0284088,1.7521329,9.380657,0.006647989,-0.007533416,0.0054006736,32640.0,-15363.5,-28542.5,
2.485,-1.9302464,2.1256282,9.344745,-0.00361080468,-0.0070004872,-0.0024599694,32384.0,-15875.5,-28798.5,
2.603,-1.9901016,1.8957848,9.327985,-0.00347757336,-0.012729432,0.003268974,32640.0,-15875.5,-28798.5,
2.720,-1.9853132,1.9005732,9.395022,-0.0092065184,0.0003272295,-0.0024599694,-32128.0,-15363.5,-28542.5,
2.842,-2.0715044,1.9412746,9.344745,-0.012936994,0.0044573956,-0.007389525,-32384.0,-15619.5,-29822.5,
2.959,-1.982919,1.99873568,9.335168,-0.006541893,0.0035247804,-0.0019270442,-32384.0,-14595.5,-27262.5,
3.077,-2.1169942,1.86466032,9.35911,-0.004809886,-0.00273709,0.0044680556,-32640.0,-15619.5,-29054.5,
3.193,-2.0284088,1.80719952,9.397417,-0.0050763636,-0.0070004872,0.0011372734,-31872.0,-15363.5,-29310.5,
3.312,-1.9924958,1.87663132,9.423753,-0.0068083555,0.013117429,-0.0029928944,-32384.0,-15107.5,-29054.5,
3.439,-2.0691102,1.9269094,9.402205,-0.005609274,0.01111896,-0.005524288,-32128.0,-14595.5,-28798.5,
3.554,-2.0691102,1.9676108,9.320803,0.010911405,-0.00180447468,0.0040683616,-32640.0,-14851.5,-28542.5,
3.672,-2.0379856,1.934092,9.423753,0.008113548,-0.0039361716,0.004334824,-32384.0,-15363.5,-29310.5,
3.787,-2.1050232,1.9556398,9.402205,-0.0062754304,0.0045906304,-0.0036590504,-32640.0,-15363.5,-29566.5,
3.905,-1.9901016,1.8957848,9.363898,-0.0026781856,0.0067223272,-0.0008611949,-32640.0,-15619.5,-29566.5,
4.027,-2.1146,1.9173326,9.378263,-0.008673593,0.0059229432,-0.0028596632,-32384.0,-15619.5,-29822.5,
4.143,-1.9661596,2.0250718,9.404599,-0.0045434236,-7.246435e-05,-0.0001950385,-32640.0,-15875.5,-27774.5,
4.259,-2.102629,1.9149384,9.3543216,0.0010522902,-0.004202634,0.000337886632,-32640.0,-15875.5,-28030.5,
4.377,-1.9972842,1.9029674,9.375869,-0.009872675,0.010852497,-0.0048581316,32640.0,-15107.5,-28286.5,
4.494,-1.9494,1.98197632,9.3543216,-0.00414373,-0.0019377023,-0.0005947314,32640.0,-15107.5,-28286.5,
4.617,-2.1122058,1.86226608,9.35911,0.0019849092,0.00059369208,0.003801899,-32128.0,-14851.5,-29054.5,
4.735,-2.1481188,1.886208,9.423753,-0.0012126416,0.0020592324,-0.00046150108,-32640.0,-15107.5,-28286.5,
4.851,-1.9230638,1.946063,9.349533,-0.0062754304,-0.00273709,-0.0021935068,-32640.0,-14851.5,-27774.5,
4.967,-2.0738986,1.81917036,9.363898,-0.002411738,-0.0020709336,-0.0011276575,-32384.0,-15107.5,-28798.5,
5.085,-2.042774,1.82635316,9.356715,-0.006541893,-0.0035364776,-0.0049913632,-32128.0,-15107.5,-28542.5,
5.213,-2.0116494,1.8886022,9.392629,-0.0060089676,0.0040577016,-0.0037922818,-31872.0,-14851.5,-29054.5,
5.332,-2.0643218,1.9771876,9.385446,-0.006541893,0.0012598485,-0.00046150108,-32128.0,-14595.5,-29822.5,
5.449,-2.0619276,1.86466032,9.368687,-0.0020120292,0.0035247804,0.002336355,32384.0,-15107.5,-28798.5,
5.568,-1.9494,1.922121,9.363898,-0.009606212,6.0766936e-05,-0.0065901376,-32640.0,-14851.5,-28798.5,
5.683,-1.9350348,1.9676108,9.406994,-0.00028002262,-0.00313678,-6.180722e-05,32640.0,-15107.5,-28030.5,
5.804,-2.066716,1.82635316,9.402205,0.0021181404,0.0041909368,-0.0016605817,32640.0,-15363.5,-28798.5,
5.922,-2.0284088,1.8814196,9.402205,-0.007074803,0.005656477,-0.00339258784,-31872.0,-15107.5,-28542.5,
6.039,-1.9494,1.85508352,9.402205,-0.012936994,0.0008601546,-0.0057907504,-31872.0,-14851.5,-29054.5,
6.155,-1.9972842,1.8886022,9.404599,0.0050492288,0.00019399822,-0.0011276575,-32640.0,-14851.5,-29310.5,
6.274,-1.9877074,1.9412746,9.445301,0.0045163036,-0.0043358652,0.004334824,-32128.0,-15363.5,-28286.5,
6.396,-2.1888202,1.86466032,9.363898,-0.0014791042,-0.0030035526,-0.0005947314,-32128.0,-15363.5,-28798.5,
6.514,-2.1002348,1.9077558,9.337562,-0.009073272,0.003791239,-0.0015273513,-32384.0,-15619.5,-28286.5,
6.630,-2.0834754,1.9532456,9.318408,-0.00720804936,-0.0011383183,-0.001793813,-32384.0,-15107.5,-27774.5,
6.748,-1.99489,1.9939473,9.37108,-0.0020120292,-0.0019377023,0.00286928,-32640.0,-15107.5,-28286.5,
6.865,-1.9972842,1.9436688,9.385446,-0.0057424904,0.00179276984,-0.0060572124,-32384.0,-14851.5,-29054.5,
6.989,-2.0212262,1.8933906,9.375869,-0.00347757336,-0.0060678684,0.001004043,-32128.0,-16131.5,-28542.5,
7.107,-2.0403798,1.91015,9.363898,-0.0022784918,-0.0011383183,0.0006043492,32640.0,-15363.5,-28542.5,
7.223,-1.9972842,1.87423716,9.361504,-0.0062754304,0.0024589264,-0.004458438,32640.0,-15363.5,-28286.5,
7.341,-2.0331972,1.9364862,9.390234,-0.013869613,0.007921409,-0.00339258784,-31872.0,-15107.5,-29054.5,
7.459,-1.9278522,1.8909964,9.397417,-0.0054760424,0.0033915452,-0.001793813,-32128.0,-14851.5,-28798.5,
7.582,-1.8991218,1.958034,9.423753,-0.0049431176,0.0043241644,-0.005657519,-31872.0,-14851.5,-28798.5,
7.698,-2.066716,1.9293036,9.385446,-0.0030778944,-0.004069403,-0.0021935068,-32128.0,-15363.5,-29822.5,
7.814,-2.1193884,1.898179,9.337562,-0.0005464852,0.0028586238,0.00366866784,32640.0,-15107.5,-28286.5,
7.931,-2.1696666,1.7904401,9.323196,-0.0068083555,0.005656477,-0.0025932006,-31872.0,-15107.5,-30078.5,
8.051,-2.0212262,1.9676108,9.325591,-0.00720804936,0.0027253888,-0.005923982,-32128.0,-15363.5,-28798.5,
8.174,-1.9805248,1.9939473,9.299254,-0.0045434236,0.0009933859,-0.0015273513,-31872.0,-15107.5,-28286.5,
8.293,-1.9613712,1.9508514,9.337562,-0.004276961,-0.0011383183,0.00193666116,-31872.0,-14851.5,-28798.5,
8.411,-1.9972842,1.9388804,9.325591,-0.0010794252,-0.0034032464,-0.0001950385,-32384.0,-15619.5,-30078.5,
8.528,-2.0858696,1.9747934,9.31362,-0.0054760424,-0.005002022,0.00047111884,-32640.0,-15363.5,-28542.5,
8.644,-2.0140436,1.9388804,9.339956,-0.0060089676,0.0045906304,-0.0020602756,-32128.0,-15363.5,-29054.5,
8.767,-2.1002348,1.9436688,9.38784,-0.0049431176,0.0003272295,-0.0024599694,-32640.0,-15363.5,-29054.5,
8.884,-2.0403798,2.0202834,9.375869,-0.0060089676,0.0053900144,-0.0005947314,-32384.0,-15875.5,-29310.5,
9.001,-2.018832,2.0226776,9.3064376,-0.0013458729,-0.0030035526,-0.00339258784,-32640.0,-15619.5,-29054.5,
9.119,-2.018832,1.9149384,9.37108,-0.009472981,0.0045906304,-0.0001950385,-32128.0,-15875.5,-29310.5,
9.239,-2.0643218,1.9005732,9.31362,-0.0020120292,0.0023256988,-0.0003282698,-32384.0,-14851.5,-29054.5,
9.355,-2.0379856,1.87184284,9.373475,-1.3560057e-05,0.004723858,-6.180722e-05,-32384.0,-14851.5,-28542.5,
9.473,-2.090658,1.9149384,9.397417,-0.0060089676,0.0049903208,-0.0013941191,-32128.0,-15619.5,-28798.5,
9.590,-1.9805248,1.970005,9.457272,-0.00694158636,0.0024589264,-0.003259357,-32128.0,-15107.5,-28286.5,
9.706,-2.054745,1.87184284,9.366292,-0.0014791042,0.00059369208,-0.00046150108,-32128.0,-15619.5,-28030.5,
9.831,-2.0260146,1.9125442,9.414176,-0.0053428112,0.0016595423,-0.000727963636,-32128.0,-15363.5,-28798.5,
9.950,-2.0379856,1.934092,9.411782,-0.0016123354,0.0031250828,-0.0037922818,-32640.0,-15107.5,-28542.5,
10.068,-2.0164378,1.91015,9.356715,-0.010805294,0.0029918552,-0.0020602756,-32128.0,-15363.5,-28798.5,
10.184,-2.0451682,1.86226608,9.383052,-0.00361080468,0.0040577016,0.004201592,-32128.0,-15107.5,-28030.5,
10.303,-1.9972842,1.9149384,9.356715,0.0027842968,0.004723858,-0.0019270442,-32640.0,-15107.5,-28030.5,
10.425,-2.0738986,1.8957848,9.344745,0.0002528876,-0.0026038588,7.142406e-05,-32384.0,-14595.5,-28798.5,
10.541,-2.1050232,1.87423716,9.335168,-0.006142199,0.0019260049,-0.003925513,-31872.0,-16131.5,-28542.5,
10.659,-2.0355914,1.9005732,9.421359,-0.0054760424,0.0035247804,0.000337886632,-31872.0,-15619.5,-29310.5,
10.779,-2.0140436,1.86466032,9.351927,-0.0014791042,-0.000205695632,-0.003925513,-32128.0,-15107.5,-30078.5,
10.898,-2.0451682,1.83114136,9.414176,-0.00361080468,0.003924474,-0.0011276575,-31872.0,-15363.5,-29822.5,
11.022,-1.9733422,1.84071824,9.363898,-0.00414373,0.008854028,-0.0040587444,-31360.0,-15619.5,-29054.5,
11.139,-1.9661596,1.9652166,9.344745,-0.006541893,0.0040577016,-0.0019270442,-32128.0,-15363.5,-27774.5,
11.256,-1.9901016,1.98197632,9.272919,-0.0049431176,0.003791239,-0.0019270442,-31872.0,-15107.5,-29310.5,
11.374,-2.006861,1.9029674,9.3543216,-0.00414373,-0.0019377023,0.0011372734,-32640.0,-15107.5,-28542.5,
11.492,-1.9853132,1.898179,9.375869,-0.0026781856,-0.0032700152,-0.00046150108,-31872.0,-15363.5,-29054.5,
11.614,-2.0715044,1.8886022,9.38784,-0.007074803,-0.0062011032,0.0027360496,-32128.0,-15363.5,-27774.5,
11.730,-2.126571,1.9364862,9.325591,-0.006541893,-0.0022041648,-6.180722e-05,-32128.0,-14851.5,-27518.5,
11.845,-2.1241768,1.91015,9.318408,-0.00694158636,0.007122021,-0.005923982,-32128.0,-15363.5,-28798.5,
11.960,-1.9781306,1.99155316,9.373475,-0.0017455816,-0.0003389269,-0.0003282698,-32384.0,-15619.5,-28798.5,
12.077,-2.0834754,1.898179,9.349533,0.0034504532,0.0025921612,0.00366866784,-32384.0,-15875.5,-29822.5,
12.201,-2.054745,1.84550668,9.318408,-0.003344342,0.0023256988,-0.0049913632,-32128.0,-15107.5,-29310.5,
12.317,-2.0691102,1.9173326,9.3543216,-0.009472981,0.0045906304,-0.00046150108,-32384.0,-15619.5,-29566.5,
12.434,-1.9924958,1.99155316,9.347138,-0.007874206,0.0036580116,-0.005124594,-32384.0,-15619.5,-28798.5,
12.551,-2.0571392,2.003524,9.38784,-0.0040104984,-0.000871852064,-0.0016605817,-31872.0,-15363.5,-28798.5,
12.668,-2.0595334,1.85029508,9.275312,-0.00094617908,-0.0012715459,-0.003259357,-32384.0,-14851.5,-28798.5,
12.792,-2.0236204,1.9388804,9.332773,-0.0032111108,0.0043241644,0.00020465534,-32384.0,-15363.5,-28542.5,
12.910,-2.054745,1.8838138,9.418964,-0.006675124,0.000460457068,-0.0036590504,-32128.0,-15363.5,-29054.5,
13.027,-2.042774,1.8957848,9.332773,-0.0026781856,-0.0032700152,-0.0035258192,-32128.0,-15363.5,-28286.5,
13.143,-2.0260146,1.8670545,9.385446,-0.0030778944,0.0024589264,-0.0049913632,-32384.0,-16131.5,-28798.5,
13.267,-2.0475624,1.9316978,9.351927,-0.0060089676,0.0057897084,0.0015369672,-32384.0,-16131.5,-29566.5,
13.384,-2.0403798,1.9436688,9.363898,-0.00361080468,0.001526311,-0.000727963636,-31872.0,-15619.5,-30078.5,
13.503,-1.982919,1.9316978,9.452483,-0.0025449544,-0.0020709336,-0.000727963636,-31872.0,-15363.5,-29310.5,
13.621,-2.0331972,1.9173326,9.366292,-0.00520958,0.00179276984,-6.180722e-05,-32640.0,-15363.5,-29310.5,
13.738,-2.0403798,1.8957848,9.392629,-0.0049431176,-0.0023373962,-0.0012608878,-32384.0,-15107.5,-29822.5,
13.861,-1.9494,2.0083124,9.418964,-0.0068083555,6.0766936e-05,-0.0028596632,-32384.0,-15619.5,-29310.5,
13.979,-2.0499566,1.922121,9.31362,-0.0005464852,-0.0016712397,-0.000727963636,-32128.0,-14851.5,-28798.5,
14.096,-2.0475624,1.87184284,9.395022,-0.009606212,0.0024589264,-0.006723369,-32384.0,-14851.5,-28286.5,
14.213,-2.006861,1.9197268,9.421359,-0.00361080468,-0.004069403,0.002336355,-32128.0,-15619.5,-28798.5,
14.329,-2.0379856,1.9364862,9.344745,-0.00081294776,0.0016595423,0.0014037369,-32384.0,-14851.5,-29054.5,
14.454,-2.006861,1.8838138,9.418964,-0.0054760424,0.0028586238,-0.0035258192,-32384.0,-15107.5,-29566.5,
14.570,-2.0475624,1.9388804,9.316014,-0.009739429,0.01218481,-0.004191975,-32384.0,-15363.5,-28798.5,
14.685,-1.8991218,1.9795818,9.356715,-0.0020120292,-0.000871852064,0.000337886632,-32128.0,-15619.5,-29310.5,
14.805,-2.0164378,1.946063,9.435724,0.0011855215,0.00019399822,0.0016701994,-32128.0,-15363.5,-29822.5,
14.922,-2.0762928,1.9077558,9.332773,-0.0017455816,6.0766936e-05,-0.0008611949,-32640.0,-15363.5,-29054.5,
15.045,-2.0379856,1.91015,9.361504,-0.0060089676,0.0043241644,0.0006043492,-32384.0,-14595.5,-29566.5,
15.161,-2.0451682,1.9293036,9.373475,-0.0045434236,-0.000738620736,0.00020465534,-31872.0,-14851.5,-29054.5,
15.280,-2.0810812,1.9316978,9.366292,-0.0017455816,-0.0023373962,0.001004043,-32640.0,-15363.5,-29822.5,
15.397,-2.0499566,1.9125442,9.378263,-0.0020120292,0.0008601546,0.0011372734,-32128.0,-15107.5,-28030.5,
15.514,-2.0571392,1.9293036,9.392629,-0.0045434236,0.005123552,-0.004191975,32640.0,-15363.5,-28798.5,
15.636,-2.054745,1.9747934,9.344745,-0.00347757336,-0.0047355556,0.0035354364,-32384.0,-14851.5,-28542.5,
15.754,-2.0044668,1.86944868,9.421359,-0.0025449544,0.0024589264,0.0022031236,-32384.0,-14851.5,-29310.5,
15.872,-1.9901016,1.86226608,9.378263,-0.007607743,0.0003272295,-0.0031261258,-32128.0,-14851.5,-29822.5,
15.990,-2.0355914,1.8933906,9.390234,-0.0062754304,0.0021924674,-0.0029928944,-32384.0,-14595.5,-29054.5,
16.108,-2.0140436,1.9436688,9.409388,-0.00347757336,0.0019260049,-0.0009944253,-32128.0,-14595.5,-29822.5,
16.233,-2.066716,1.9125442,9.351927,-0.0050763636,0.0021924674,-0.004191975,-31872.0,-15363.5,-29822.5,
16.349,-2.0020726,1.9316978,9.404599,-0.00414373,0.003791239,0.00047111884,-32128.0,-15363.5,-29566.5,
16.465,-2.0762928,1.8909964,9.38784,-0.00720804936,0.0032583176,-0.0020602756,-32128.0,-14851.5,-28030.5,
16.583,-2.0355914,1.9652166,9.3543216,-0.0038772672,0.00019399822,-0.0057907504,-32128.0,-14851.5,-27774.5,
16.713,-2.0260146,1.958034,9.435724,-0.0029446482,-0.0023373962,0.0012705056,-32128.0,-15107.5,-28286.5,
16.830,-2.0236204,1.958034,9.366292,-0.0038772672,0.003791239,-0.005124594,-32128.0,-14595.5,-29310.5,
16.945,-1.99489,1.922121,9.375869,-0.0044102072,6.0766936e-05,0.00020465534,-31872.0,-15363.5,-28798.5,
17.061,-2.0930522,1.9269094,9.399811,-0.0013458729,0.0055232496,-0.005124594,-32384.0,-15619.5,-30078.5,
17.178,-2.0331972,1.9771876,9.378263,-0.0060089676,0.0025921612,-0.0016605817,-32128.0,-14595.5,-29310.5,
17.302,-1.9757364,1.9795818,9.428541,-0.004276961,-0.000871852064,0.0016701994,-32640.0,-15619.5,-29054.5,
17.420,-1.9541884,1.86944868,9.438118,-0.0016123354,0.0031250828,-0.0021935068,-32384.0,-15107.5,-29310.5,
17.538,-1.9637654,1.9029674,9.356715,-0.0057424904,0.0012598485,-0.0001950385,-32640.0,-15875.5,-29566.5,
17.656,-2.0499566,1.9053616,9.399811,-0.0073412808,0.0064558648,-0.0048581316,-32128.0,-15619.5,-28542.5,
17.773,-1.9901016,1.9723992,9.406994,-0.0030778944,0.0009933859,-0.0025932006,-32128.0,-15619.5,-29310.5,
17.896,-1.9901016,1.9364862,9.375869,-0.0022784918,0.0011266135,-0.001793813,-31872.0,-15363.5,-30334.5,
18.013,-1.9063044,2.087321,9.423753,-0.003344342,0.00179276984,0.0014037369,-32384.0,-15619.5,-28798.5,
18.130,-2.0164378,1.86226608,9.3303792,-0.0044102072,6.0766936e-05,-0.0029928944,-31872.0,-14595.5,-29054.5,
18.250,-2.1098116,1.80719952,9.320803,0.0026510656,0.004857093,-0.0020602756,32640.0,-14595.5,-29054.5,
18.368,-1.9637654,2.003524,9.418964,-0.0049431176,0.0024589264,0.0006043492,32640.0,-15107.5,-28542.5,
18.489,-2.030803,1.84311252,9.435724,-0.0032111108,0.0013930798,-0.0021935068,32640.0,-15107.5,-29566.5,
18.606,-1.8081422,2.0083124,9.373475,-0.0049431176,0.0021924674,-0.0008611949,32640.0,-15107.5,-29566.5,
18.723,-2.1169942,1.83353568,9.37108,-0.0025449544,-0.0019377023,-0.0020602756,-32640.0,-14851.5,-29566.5,
18.843,-2.0834754,1.71861392,9.337562,-0.004276961,0.0011266135,0.004334824,-32128.0,-14595.5,-30334.5,
18.960,-2.0260146,2.0250718,9.375869,-0.00028002262,0.0045906304,-0.0029928944,-32384.0,-15363.5,-30078.5,
19.084,-2.0284088,1.9125442,9.349533,-0.0054760424,0.0011266135,7.142406e-05,-32640.0,-15363.5,-30078.5,
19.202,-1.9470058,1.9053616,9.37108,0.0031839908,0.0043241644,-0.0024599694,-32384.0,-14851.5,-29566.5,
19.319,-2.0715044,1.8933906,9.411782,-0.0020120292,0.0031250828,0.0018034298,32640.0,-15363.5,-29822.5,
19.436,-2.0499566,1.84550668,9.385446,-0.01147145,0.0035247804,7.142406e-05,-32384.0,-15107.5,-29822.5,
19.555,-1.9757364,1.8670545,9.383052,-0.0062754304,0.005123552,0.00047111884,-32384.0,-15107.5,-29822.5,
19.679,-2.078687,1.8886022,9.392629,-0.00414373,0.0029918552,-0.0052578252,-31872.0,-14851.5,-29822.5,
19.794,-1.9924958,1.9484572,9.395022,0.0011855215,0.004723858,0.0024695872,-32128.0,-14851.5,-29310.5,
19.911,-2.0212262,1.9053616,9.392629,-0.00720804936,-0.00180447468,0.00193666116,-32384.0,-14851.5,-29310.5,
20.031,-1.9541884,1.946063,9.318408,-0.002811417,0.0019260049,-0.0013941191,-32384.0,-15363.5,-28798.5,
20.149,-2.0523508,1.9197268,9.375869,-0.00720804936,0.001526311,-0.0031261258,-32384.0,-15363.5,-28286.5,
20.272,-2.030803,1.934092,9.392629,-0.0044102072,0.0033915452,-0.0019270442,-32640.0,-15107.5,-27774.5,
20.388,-1.9805248,1.98676468,9.3543216,0.000785827636,0.00059369208,0.000337886632,-32640.0,-15363.5,-29566.5,
20.509,-1.9781306,1.85987184,9.486002,-0.009073272,-0.00313678,0.0022031236,-32128.0,-15107.5,-28798.5,
20.626,-2.0403798,1.87663132,9.323196,-0.0082739,0.0033915452,-6.180722e-05,-32384.0,-15363.5,-29054.5,
20.743,-2.0284088,1.9316978,9.339956,-0.00720804936,-0.0003389269,0.00087081176,-31872.0,-15363.5,-28798.5,
20.866,-1.9901016,1.8670545,9.3543216,-0.004809886,0.0040577016,-0.0028596632,-32640.0,-14851.5,-29310.5,
20.984,-1.9924958,1.9436688,9.296861,-0.0013458729,6.0766936e-05,-0.0028596632,-32384.0,-15107.5,-29822.5,
21.102,-1.9853132,1.9723992,9.344745,0.0003861338,0.00179276984,-6.180722e-05,-32384.0,-15363.5,-29054.5,
21.219,-2.0571392,1.86466032,9.406994,-0.00347757336,0.0032583176,-0.0019270442,-32384.0,-15363.5,-30334.5,
21.344,-2.0284088,1.886208,9.390234,-0.0017455816,0.0055232496,-0.0036590504,-32640.0,-15107.5,-28798.5,
21.460,-2.0116494,1.9053616,9.366292,-0.0022784918,6.0766936e-05,-0.0008611949,32640.0,-15363.5,-28798.5,
21.577,-1.9470058,1.9149384,9.395022,-0.007474512,0.004857093,-0.0016605817,-32640.0,-14851.5,-28798.5,
21.693,-1.9853132,1.9077558,9.368687,-0.0037440508,0.003924474,-0.001793813,-32640.0,-15107.5,-29310.5,
21.809,-2.0523508,1.9173326,9.430936,-0.0038772672,-0.0052684844,7.142406e-05,-32128.0,-15363.5,-29566.5,
21.931,-2.0858696,1.9508514,9.399811,-0.006142199,0.0055232496,-0.0049913632,-32128.0,-15107.5,-29054.5,
22.048,-1.9350348,2.0083124,9.442906,-0.0060089676,0.00805464,-0.0019270442,-32640.0,-15619.5,-28030.5,
22.164,-1.99489,1.9628224,9.392629,-0.0040104984,0.0008601546,0.002336355,-31872.0,-14851.5,-28542.5,
22.279,-2.0523508,1.84071824,9.414176,-0.004809886,0.0041909368,-0.0009944253,-32640.0,-15107.5,-28030.5,
22.395,-2.018832,1.9029674,9.454878,-0.00414373,0.0032583176,-0.0001950385,-32384.0,-15619.5,-28286.5,
22.515,-2.018832,1.922121,9.366292,-0.006541893,-0.0039361716,-0.0047249004,-32640.0,-14851.5,-28542.5,
22.631,-2.0403798,1.898179,9.368687,-0.0053428112,0.00019399822,-0.0021935068,-32640.0,-15107.5,-29054.5,
22.748,-2.0140436,1.9364862,9.349533,0.0003861338,-0.0014047772,0.00087081176,32640.0,-15363.5,-28542.5,
22.865,-1.9924958,1.8814196,9.392629,-0.0030778944,0.0032583176,-0.0019270442,32640.0,-15619.5,-28542.5,
22.983,-2.0116494,1.9556398,9.383052,-0.009073272,0.0025921612,-0.0025932006,-32128.0,-15619.5,-28286.5,
23.106,-2.090658,1.98676468,9.356715,-0.0025449544,-0.000205695632,-0.000727963636,-32384.0,-15619.5,-29054.5,
23.226,-2.006861,1.9508514,9.3064376,-0.0050763636,-0.0015380084,-0.0009944253,-32384.0,-16131.5,-28798.5,
23.343,-1.9924958,1.922121,9.402205,-0.004276961,0.003791239,-0.0025932006,-32384.0,-16131.5,-29310.5,
23.458,-2.0355914,1.91015,9.318408,-0.0037440508,0.0016595423,-0.0015273513,-31872.0,-16131.5,-28542.5,
23.575,-2.0475624,1.84071824,9.454878,-0.003344342,-0.0006053895,0.0020698932,-32384.0,-15875.5,-29054.5,
23.698,-1.9494,1.8790254,9.378263,-0.0017455816,-0.004469093,-0.0012608878,32640.0,-15619.5,-29054.5,
23.813,-2.0403798,1.8814196,9.339956,-0.0032111108,-0.0004721582,-0.0021935068,-32384.0,-16131.5,-28798.5,
23.930,-2.0164378,1.9269094,9.43333,-0.0040104984,0.001526311,0.00020465534,-32128.0,-15619.5,-28798.5,
24.046,-1.9541884,1.9412746,9.366292,-0.008540362,0.003791239,-0.0019270442,-32640.0,-16131.5,-28542.5,
24.162,-1.9901016,1.9532456,9.380657,-0.005609274,0.0040577016,-0.0028596632,32384.0,-16899.5,-27774.5,
24.284,-1.9733422,1.9508514,9.320803,-0.005609274,0.0029918552,-0.00046150108,32128.0,-17667.5,-28286.5,
24.400,-2.0164378,1.8838138,9.351927,-0.0029446482,0.006189406,-0.00046150108,32128.0,-18179.5,-29054.5,
24.516,-1.982919,1.8838138,9.426147,-0.010672063,0.0055232496,-0.0031261258,32128.0,-18435.5,-29310.5,
24.633,-2.030803,1.922121,9.383052,-0.0040104984,0.0016595423,-0.0015273513,32128.0,-18435.5,-29310.5,
24.749,-2.066716,1.886208,9.34235,-0.0057424904,-0.000205695632,-0.0029928944,31360.0,-17923.5,-29054.5,
24.871,-2.0044668,1.9173326,9.392629,-0.00361080468,0.0057897084,-0.004458438,31872.0,-17667.5,-28542.5,
24.988,-1.9853132,1.9316978,9.304043,0.00065259636,0.004857093,-0.002726432,31872.0,-18179.5,-28030.5,
25.104,-2.018832,1.8957848,9.426147,-0.0030778944,0.0027253888,0.0035354364,32384.0,-18179.5,-28798.5,
25.220,-2.0619276,1.8933906,9.37108,-0.0014791042,-0.004469093,-0.0009944253,32128.0,-18947.5,-28542.5,
25.336,-2.0499566,1.9364862,9.390234,-0.0025449544,0.001526311,-0.0045916692,-32640.0,-18947.5,-29054.5,
25.458,-2.0643218,1.9556398,9.361504,-0.0062754304,-0.000871852064,-0.0013941191,-32128.0,-19715.5,-28542.5,
25.577,-2.0236204,1.9077558,9.414176,-0.0026781856,0.0012598485,-0.0028596632,-32384.0,-21251.5,-28286.5,
25.694,-2.0715044,1.9269094,9.37108,-0.00520958,0.0033915452,-0.0035258192,-31360.0,-20995.5,-29054.5,
25.809,-2.0140436,1.9484572,9.339956,-0.0026781856,-0.0024706236,-0.0045916692,-31616.0,-20995.5,-30078.5,
25.932,-2.0834754,1.9508514,9.383052,0.00185167792,0.00072692332,0.0016701994,-31360.0,-21251.5,-30334.5,
26.050,-2.0882638,1.9293036,9.397417,-0.0005464852,-0.0010050833,-0.002326738,-31872.0,-20739.5,-29054.5,
26.166,-2.066716,1.9412746,9.344745,-0.0030778944,0.0049903208,-0.0008611949,-31616.0,-20739.5,-28798.5,
26.282,-2.0116494,2.003524,9.34235,-0.0058757364,0.0013930798,-0.0024599694,-31872.0,-20483.5,-30078.5,
26.398,-2.0236204,2.0418312,9.380657,-0.0022784918,0.0011266135,-0.0001950385,-31616.0,-21251.5,-30078.5,
26.521,-2.054745,1.9029674,9.47882,-0.004809886,-0.0071337184,0.0018034298,-31616.0,-21251.5,-29054.5,
26.637,-2.0403798,1.886208,9.409388,-0.0021452606,0.0064558648,-0.004458438,-31872.0,-21251.5,-29822.5,
26.753,-2.054745,1.946063,9.361504,-0.00361080468,0.0031250828,-0.000727963636,-31616.0,-20739.5,-29822.5,
26.871,-2.0116494,1.9245152,9.375869,-0.004276961,-0.0032700152,0.0015369672,-31616.0,-21251.5,-29310.5,
26.987,-1.9781306,1.9364862,9.385446,-0.003344342,-0.0011383183,0.0031357436,-31616.0,-20739.5,-29054.5,
27.110,-1.9924958,1.9604282,9.423753,-0.0049431176,-0.0011383183,-0.0005947314,-31616.0,-20739.5,-29566.5,
27.227,-2.0284088,1.8933906,9.423753,-0.0060089676,-0.0003389269,-0.002326738,-32384.0,-20483.5,-28798.5,
27.343,-1.9901016,1.9149384,9.38784,-0.0045434236,0.00019399822,0.0016701994,-31616.0,-20995.5,-29822.5,
27.460,-1.9733422,1.9508514,9.368687,-0.004276961,0.0036580116,-0.0003282698,-31616.0,-20739.5,-29054.5,
27.576,-2.0379856,1.9005732,9.347138,-0.0017455816,-0.000871852064,-0.0021935068,-31616.0,-20739.5,-30078.5,
27.699,-2.042774,1.9412746,9.409388,-0.0049431176,0.0025921612,-0.005524288,-32384.0,-21251.5,-29054.5,
27.815,-2.0116494,1.8933906,9.438118,-0.00520958,-0.000871852064,-0.0011276575,-31360.0,-20739.5,-30078.5,
27.932,-1.9853132,1.9245152,9.37108,-0.0053428112,-0.0051352492,-0.0020602756,-31872.0,-20739.5,-28798.5,
28.054,-2.0212262,1.9508514,9.385446,-0.006142199,0.00179276984,-0.0015273513,-31616.0,-20483.5,-29054.5,
28.172,-2.0355914,1.9077558,9.406994,-0.0014791042,0.003791239,0.00047111884,-31616.0,-20995.5,-29054.5,
28.295,-2.054745,1.898179,9.375869,-0.009606212,0.0008601546,0.0020698932,-31616.0,-20995.5,-29310.5,
28.409,-2.042774,1.9293036,9.375869,-0.004676655,0.0059229432,-0.0031261258,-31616.0,-21507.5,-29310.5,
28.525,-2.018832,1.9723992,9.356715,-0.0029446482,0.0040577016,-0.002326738,-31616.0,-20483.5,-29310.5,
28.641,-2.0092552,1.9412746,9.378263,-0.0053428112,0.0027253888,-0.0025932006,-31616.0,-20995.5,-29054.5,
28.759,-1.9853132,1.98676468,9.35911,-0.0032111108,0.000460457068,-0.00046150108,-31872.0,-20995.5,-29310.5,
28.883,-2.018832,1.8479009,9.363898,-0.0054760424,-0.0003389269,0.00047111884,-31872.0,-20739.5,-29310.5,
29.001,-1.9877074,1.84071824,9.428541,-0.004676655,0.0027253888,0.001004043,-31616.0,-20483.5,-29310.5,
29.118,-2.0140436,1.8909964,9.395022,-0.001878798,0.003924474,-0.0035258192,-31872.0,-20739.5,-28798.5,
29.234,-1.9877074,1.970005,9.435724,-0.0017455816,0.0035247804,-0.0016605817,-31360.0,-20227.5,-28030.5,
29.352,-1.9805248,1.9412746,9.344745,-0.0053428112,-0.0003389269,0.00020465534,-31360.0,-20995.5,-29310.5,
29.475,-2.0212262,1.9269094,9.392629,0.0025178344,0.00059369208,-0.0003282698,-32128.0,-20739.5,-29566.5,
29.592,-2.0212262,1.8814196,9.395022,-0.004809886,-0.0006053895,-0.004458438,-31616.0,-20483.5,-29566.5,
29.708,-1.9637654,1.91015,9.383052,-0.007607743,0.0024589264,-0.0005947314,-32128.0,-20483.5,-29310.5,
29.822,-1.9565826,1.9676108,9.390234,-0.004676655,0.0016595423,-0.0015273513,-31360.0,-20483.5,-29566.5,
29.945,-1.9781306,1.9747934,9.402205,-0.004676655,0.0012598485,0.0018034298,-32640.0,-20995.5,-29310.5,
30.063,-2.0044668,1.8790254,9.411782,-0.0038772672,-0.0015380084,0.000337886632,-31360.0,-20739.5,-28798.5,
30.181,-2.0331972,1.9149384,9.399811,-0.002811417,-0.0003389269,0.0012705056,-32128.0,-20483.5,-30078.5,
30.297,-2.042774,1.8909964,9.38784,-0.003344342,0.0055232496,-0.0064569064,-31616.0,-20483.5,-29822.5,
30.412,-2.0020726,1.91015,9.3543216,-0.004809886,-0.0015380084,-0.0013941191,-30848.0,-20739.5,-29310.5,
30.534,-2.0762928,1.9532456,9.363898,-0.003344342,0.0041909368,-0.0029928944,-31872.0,-20995.5,-29310.5,
30.650,-2.0523508,1.9412746,9.392629,-0.0057424904,0.0033915452,-0.0003282698,-31104.0,-20739.5,-29054.5,
30.767,-2.0379856,1.898179,9.397417,-0.007474512,0.0011266135,-0.0043252064,-32384.0,-21251.5,-29566.5,
30.883,-2.0236204,1.9173326,9.325591,-0.002411738,0.0016595423,0.000337886632,-31360.0,-20483.5,-29310.5,
31.001,-1.9996784,1.8814196,9.349533,-0.0044102072,0.0021924674,0.00073758052,-31616.0,-20995.5,-28542.5,
31.125,-2.0260146,1.8909964,9.392629,0.00185167792,0.001526311,-0.0043252064,-31872.0,-20995.5,-29566.5,
31.243,-2.0595334,1.9149384,9.447695,-0.002811417,0.000460457068,-0.0001950385,-31360.0,-20995.5,-29310.5,
31.360,-2.018832,1.958034,9.378263,-0.006142199,-0.0003389269,0.0012705056,-31104.0,-21251.5,-29566.5,
31.475,-2.0331972,1.9388804,9.375869,-0.0017455816,0.0068555624,-0.0045916692,-31872.0,-20995.5,-30334.5,
31.592,-2.0475624,1.9316978,9.426147,0.00065259636,0.005656477,-0.0029928944,-31616.0,-20739.5,-29822.5,
31.715,-2.0044668,1.8909964,9.392629,-0.007474512,-0.0014047772,-6.180722e-05,-31616.0,-21251.5,-29310.5,
31.831,-2.0044668,1.922121,9.43333,-0.0029446482,0.001526311,-0.002326738,-31360.0,-19971.5,-30078.5,
31.945,-2.0260146,1.922121,9.442906,-0.006142199,0.006056171,-0.0013941191,-31360.0,-20739.5,-29822.5,
32.061,-2.0116494,1.9245152,9.399811,-0.00014679134,0.0016595423,0.00020465534,-31872.0,-20483.5,-29566.5,
32.179,-2.0020726,1.87663132,9.349533,-0.0037440508,0.0067223272,0.0014037369,-32384.0,-20227.5,-29054.5,
32.303,-2.0499566,1.8957848,9.299254,-0.002411738,0.001526311,0.0044680556,-31872.0,-20739.5,-29822.5,
32.418,-2.0523508,1.9364862,9.466848,-0.0040104984,0.0031250828,-0.0001950385,-32128.0,-20483.5,-29054.5,
32.535,-2.0331972,1.9149384,9.272919,-0.008940056,0.005123552,0.00073758052,-31616.0,-19971.5,-29054.5,
32.651,-2.054745,1.9723992,9.406994,-0.0058757364,-0.0023373962,-0.003259357,-31616.0,-20483.5,-28030.5,
32.766,-2.0451682,1.87423716,9.375869,-0.0038772672,0.00738848368,0.00020465534,-31360.0,-20227.5,-29566.5,
32.892,-2.0451682,1.9388804,9.390234,-0.009073272,0.0009933859,-0.0009944253,-31872.0,-20227.5,-29566.5,
33.007,-2.0882638,1.9173326,9.426147,-0.0012126416,-0.000871852064,0.0027360496,-32128.0,-21251.5,-30334.5,
33.126,-2.0331972,2.0226776,9.402205,-0.0038772672,-7.246435e-05,-0.003925513,-31360.0,-20483.5,-29566.5,
33.242,-1.9781306,1.934092,9.368687,-0.0054760424,-0.0012715459,-0.0008611949,-32128.0,-20483.5,-29566.5,
33.358,-2.0595334,1.8670545,9.325591,-0.006541893,0.0036580116,-0.000727963636,-31872.0,-20739.5,-29054.5,
33.483,-2.0164378,1.87663132,9.34235,-0.0060089676,-0.0012715459,0.0016701994,-31616.0,-20483.5,-30334.5,
33.601,-2.054745,1.8909964,9.368687,0.0010522902,0.0009933859,0.0014037369,-31616.0,-20227.5,-29566.5,
33.718,-2.0954464,1.82156468,9.339956,-0.0032111108,0.0020592324,-6.180722e-05,-31616.0,-20483.5,-29054.5,
33.835,-2.0643218,1.9293036,9.35911,-0.004276961,-0.0016712397,-0.0005947314,-31872.0,-20227.5,-28798.5,
33.957,-2.0355914,1.934092,9.440513,-0.0030778944,-0.0020709336,-0.0008611949,-31872.0,-20227.5,-29310.5,
34.073,-1.9972842,1.934092,9.35911,-0.006541893,-0.00180447468,-0.0029928944,-31872.0,-20227.5,-29310.5,
34.190,-2.0331972,1.9316978,9.421359,-0.0062754304,0.0009933859,-0.0036590504,-31616.0,-20483.5,-28286.5,
34.307,-1.9924958,1.9723992,9.414176,-0.004809886,0.0041909368,-0.001793813,-31104.0,-20227.5,-28542.5,
34.422,-2.018832,1.8790254,9.35911,-0.002811417,0.00725525236,-0.0016605817,-31872.0,-19715.5,-29310.5,
34.544,-1.9924958,1.9364862,9.442906,-0.0053428112,-0.0026038588,0.0022031236,-32128.0,-19203.5,-28542.5,
34.661,-1.9805248,1.8933906,9.404599,-0.0049431176,0.0009933859,-0.0040587444,-31872.0,-19715.5,-29310.5,
34.778,-1.9901016,1.8790254,9.332773,-0.003344342,-7.246435e-05,-0.0009944253,-32128.0,-19459.5,-28798.5,
34.894,-2.0020726,1.958034,9.395022,-0.00081294776,0.003791239,-0.00046150108,-31104.0,-20227.5,-29566.5,
35.010,-2.0810812,1.9388804,9.368687,-0.0020120292,0.0024589264,-0.004191975,-31616.0,-20739.5,-28798.5,
35.132,-2.0236204,1.946063,9.351927,0.0021181404,0.00059369208,-0.0024599694,-31616.0,-20483.5,-30078.5,
35.249,-2.0236204,1.9388804,9.3543216,-0.0026781856,0.001526311,0.0024695872,-31360.0,-20739.5,-30078.5,
35.367,-2.066716,1.8886022,9.438118,-0.00347757336,0.003791239,0.00087081176,-31616.0,-20739.5,-29822.5,
35.484,-2.0236204,1.8790254,9.37108,-0.00014679134,0.0027253888,-0.00339258784,-31872.0,-20483.5,-29310.5,
35.602,-2.0691102,1.87423716,9.366292,-0.0058757364,6.0766936e-05,-0.0016605817,-31104.0,-20739.5,-29054.5,
35.727,-2.0954464,1.9149384,9.337562,-0.0016123354,0.0055232496,-0.0043252064,-31104.0,-20739.5,-29054.5,
35.844,-1.9805248,1.98437036,9.378263,-0.008806825,0.0008601546,-0.0011276575,-31872.0,-19971.5,-29054.5,
35.962,-2.006861,1.9269094,9.435724,-0.00361080468,-0.00380293668,-0.0025932006,-31360.0,-19971.5,-29054.5,
36.080,-1.970948,1.946063,9.351927,-0.0012126416,-7.246435e-05,0.00047111884,-31104.0,-20483.5,-29054.5,
36.196,-2.0834754,1.886208,9.327985,-0.00067971648,-0.000205695632,-0.0020602756,-31872.0,-20483.5,-30846.5,
36.319,-2.006861,1.898179,9.368687,-0.007074803,0.0025921612,-0.005124594,-31872.0,-20483.5,-29310.5,
36.434,-2.0379856,1.8933906,9.435724,-0.0068083555,0.0029918552,-0.0031261258,-31360.0,-20483.5,-29566.5,
36.553,-1.9589768,1.9771876,9.351927,-0.0045434236,0.0028586238,-0.0009944253,-31360.0,-20483.5,-30334.5,
36.670,-2.0140436,1.9125442,9.37108,-0.0030778944,0.0008601546,-0.0052578252,-31616.0,-19971.5,-30078.5,
36.785,-2.0260146,1.86944868,9.375869,-0.00361080468,0.0043241644,0.0011372734,-32128.0,-20739.5,-29310.5,
36.926,-2.0355914,1.9029674,9.361504,-0.008407116,0.0028586238,-0.0043252064,-31360.0,-20483.5,-28542.5,
37.043,-1.913487,1.970005,9.454878,-0.0040104984,-0.000871852064,-0.0011276575,-31616.0,-20739.5,-28542.5,
37.160,-2.0116494,1.9053616,9.37108,-0.0026781856,0.0035247804,0.00073758052,-31360.0,-20483.5,-29054.5,
37.278,-2.0236204,1.8814196,9.375869,0.000919044,0.0040577016,0.0006043492,-31872.0,-20739.5,-29054.5,
37.394,-2.030803,1.9484572,9.483608,-0.00414373,0.0027253888,-0.0047249004,-31616.0,-21251.5,-29054.5,
37.515,-2.0379856,1.934092,9.397417,-0.0101391376,0.003791239,0.00087081176,-31616.0,-20227.5,-28542.5,
37.632,-2.0260146,1.9149384,9.373475,-0.008007437,-0.003669709,0.00020465534,-31360.0,-19715.5,-29822.5,
37.748,-2.0236204,1.8574776,9.37108,-0.0049431176,0.005656477,-0.0020602756,-31872.0,-20483.5,-29054.5,
37.865,-1.9996784,1.87184284,9.418964,-0.0030778944,-0.0003389269,-0.0031261258,-31360.0,-19971.5,-29054.5,
37.989,-2.0236204,1.91015,9.395022,-0.0050763636,0.0063226336,-0.00046150108,-32128.0,-20483.5,-28798.5,
38.105,-1.9901016,1.9005732,9.414176,-0.0037440508,0.005256787,7.142406e-05,-31616.0,-20227.5,-29310.5,
38.220,-1.9853132,1.9364862,9.373475,-0.006142199,0.0016595423,-0.001793813,-31104.0,-20483.5,-29822.5,
38.336,-2.0284088,1.958034,9.323196,-0.006541893,-0.0004721582,-0.00046150108,-31616.0,-20227.5,-28286.5,
38.451,-1.9685538,1.9532456,9.395022,-0.00720804936,0.0013930798,-0.0020602756,-31360.0,-20227.5,-28798.5,
38.576,-2.0523508,1.8909964,9.34235,-0.005609274,0.0027253888,-0.0021935068,-31616.0,-20227.5,-28798.5,
38.691,-2.0284088,1.922121,9.395022,-0.007874206,0.00059369208,0.0011372734,-31104.0,-19971.5,-29054.5,
38.807,-2.0284088,1.87663132,9.426147,-0.0005464852,0.003924474,-0.0024599694,-31616.0,-20739.5,-29822.5,
38.925,-2.0331972,1.82635316,9.3064376,-0.006541893,-0.0003389269,-6.180722e-05,-31872.0,-20483.5,-29054.5,
39.042,-2.042774,1.9173326,9.335168,-0.0040104984,0.0021924674,-0.0001950385,-31616.0,-20739.5,-28030.5,
39.170,-1.9781306,1.9939473,9.349533,-0.004676655,6.0766936e-05,-0.003925513,-32128.0,-21251.5,-28030.5,
39.288,-2.0451682,1.9005732,9.409388,-0.00694158636,0.007122021,-0.003925513,-31872.0,-20995.5,-29822.5,
39.405,-2.0140436,1.9388804,9.294466,-0.0012126416,0.0003272295,-0.000727963636,-31360.0,-21251.5,-29310.5,
39.522,-2.006861,1.9316978,9.397417,-0.009073272,0.006056171,-0.0016605817,-31872.0,-21251.5,-30334.5,
39.638,-2.126571,1.8790254,9.337562,0.005582154,-0.000738620736,0.0063332924,-31360.0,-20995.5,-30590.5,
39.761,-2.0930522,1.80241108,9.430936,-0.00094617908,0.0027253888,-0.0031261258,-31616.0,-20739.5,-28286.5,
39.879,-2.0212262,1.9628224,9.373475,-0.010805294,0.0041909368,-0.0045916692,-31616.0,-20227.5,-28798.5,
39.996,-1.9398232,2.0490138,9.335168,-0.0014791042,-0.0026038588,0.0039351304,-31360.0,-20227.5,-28286.5,
40.113,-1.9541884,1.958034,9.469243,-0.0026781856,-0.0051352492,0.0035354364,-31616.0,-20483.5,-29310.5,
40.229,-2.0523508,1.8287473,9.423753,-0.0032111108,-0.0060678684,0.004601286,-31360.0,-20483.5,-28798.5,
40.352,-2.0020726,1.87423716,9.404599,-0.0062754304,0.0029918552,-0.0011276575,-31104.0,-20483.5,-29310.5,
40.470,-2.0475624,1.87663132,9.356715,-0.00520958,0.005656477,-0.0025932006,-31616.0,-20739.5,-29566.5,
40.587,-2.0715044,1.9747934,9.347138,-0.008007437,-0.0015380084,-0.0031261258,-31616.0,-20227.5,-30334.5,
40.704,-1.9853132,1.9676108,9.347138,-0.0025449544,-0.0039361716,0.0034022052,-31616.0,-20739.5,-29054.5,
40.821,-2.1122058,1.77368068,9.37108,-0.0025449544,-0.0004721582,-0.0025932006,-31360.0,-20739.5,-30590.5,
40.944,-2.054745,1.8957848,9.383052,-0.0017455816,-0.0023373962,-0.0035258192,-31872.0,-20995.5,-29310.5,
41.060,-1.9877074,2.0466196,9.356715,-0.00720804936,-0.0006053895,-0.0021935068,-31360.0,-20227.5,-30334.5,
41.178,-1.9158812,1.9795818,9.411782,-0.0029446482,-0.005002022,-0.000727963636,-31616.0,-20483.5,-29054.5,
41.296,-2.0403798,1.9412746,9.323196,-0.005609274,-0.0024706236,0.00020465534,-31872.0,-20483.5,-30334.5,
41.418,-1.9757364,1.9388804,9.344745,0.001451984,-0.0052684844,0.0014037369,-31104.0,-20483.5,-30334.5,
41.534,-1.9805248,1.83353568,9.442906,0.0021181404,0.0035247804,-0.0012608878,-31616.0,-20739.5,-29310.5,
41.654,-2.0116494,1.82395884,9.488397,-0.011071742,0.0076549464,-0.0037922818,-31360.0,-20483.5,-29822.5,
41.774,-1.8967276,1.98915884,9.337562,-0.011338219,0.010319572,-0.00685660036,-31360.0,-20483.5,-29566.5,
41.893,-1.9733422,1.9556398,9.418964,0.001451984,0.0009933859,0.0024695872,-31360.0,-20227.5,-29310.5,
42.015,-2.1816376,1.9269094,9.366292,-0.0032111108,-0.0026038588,-0.0001950385,-31872.0,-20739.5,-28542.5,
42.132,-2.0954464,1.9125442,9.363898,-0.0082739,0.0105860344,-0.0040587444,-31616.0,-20739.5,-29310.5,
42.249,-1.9589768,1.9723992,9.349533,-0.012670532,0.010852497,-0.00752275664,-31616.0,-21251.5,-29054.5,
42.366,-2.0116494,1.9652166,9.347138,0.005582154,-0.0010050833,-0.0029928944,-31872.0,-20995.5,-29054.5,
42.483,-2.0762928,1.8957848,9.347138,0.0002528876,0.00019399822,-6.180722e-05,-31616.0,-20739.5,-30334.5,
42.605,-2.030803,1.9197268,9.347138,-0.0040104984,0.0028586238,-0.0031261258,-31104.0,-20739.5,-30078.5,
42.721,-2.018832,1.87663132,9.366292,-0.0022784918,0.0011266135,0.0031357436,-31616.0,-20483.5,-29310.5,
42.839,-2.0691102,1.87663132,9.339956,-0.007607743,0.0025921612,-0.003259357,-30848.0,-19971.5,-30078.5,
42.956,-1.9446116,1.9652166,9.375869,-0.0010794252,0.003924474,-0.005524288,-31104.0,-20739.5,-30078.5,
43.072,-2.0355914,1.9388804,9.409388,0.0019849092,-0.000738620736,0.004334824,-31360.0,-21251.5,-29566.5,
43.195,-2.0882638,1.8886022,9.351927,-0.0013458729,0.0011266135,-0.002726432,-31104.0,-20739.5,-29310.5,
43.313,-1.9996784,1.99155316,9.363898,-0.00081294776,0.0013930798,0.0015369672,-31360.0,-20483.5,-29822.5,
43.431,-2.0858696,1.8933906,9.385446,-0.0040104984,0.003924474,-0.004458438,-31616.0,-20739.5,-29310.5,
43.547,-2.018832,1.9125442,9.421359,-0.007074803,0.0019260049,7.142406e-05,-31616.0,-20995.5,-29054.5,
43.663,-2.0284088,1.9484572,9.428541,-0.0064086468,-0.0004721582,-0.0003282698,-31872.0,-21507.5,-29566.5,
43.784,-1.9685538,1.8814196,9.409388,-0.00361080468,0.00059369208,0.00193666116,-31872.0,-20739.5,-30846.5,
43.903,-2.1002348,1.8670545,9.445301,-0.0026781856,0.0031250828,-0.002326738,-31360.0,-20483.5,-30078.5,
44.021,-2.0236204,1.9556398,9.332773,-0.006675124,0.0028586238,-0.0025932006,-31360.0,-20995.5,-28542.5,
44.138,-2.0260146,1.8909964,9.43333,-0.0044102072,0.0028586238,0.001004043,-30848.0,-20739.5,-29566.5,
44.255,-2.0212262,1.99155316,9.34235,-0.0053428112,0.0016595423,-0.001793813,-31104.0,-20995.5,-29054.5,
44.378,-2.0260146,1.934092,9.38784,-0.0020120292,-0.00313678,-0.0012608878,-30848.0,-20483.5,-29310.5,
44.493,-2.0044668,1.86944868,9.363898,-0.0016123354,-0.00273709,-0.0028596632,-31104.0,-20739.5,-29054.5,
44.609,-1.9853132,1.87423716,9.428541,-0.0049431176,0.0036580116,-0.0001950385,-31104.0,-20483.5,-30078.5,
44.727,-2.0715044,1.8838138,9.31362,-0.005609274,-0.000738620736,-0.002726432,-31104.0,-20739.5,-30590.5,
44.843,-2.0284088,1.87184284,9.375869,-0.0017455816,0.0020592324,7.142406e-05,-31872.0,-20483.5,-30334.5,
44.966,-2.0571392,1.9077558,9.323196,-0.0012126416,-0.0034032464,-0.0016605817,-31360.0,-20739.5,-29822.5,
45.083,-2.0284088,1.9795818,9.452483,-0.0005464852,0.0021924674,-0.0021935068,-31104.0,-21251.5,-31358.5,
45.199,-2.0116494,1.87663132,9.361504,-0.0040104984,0.0031250828,0.0012705056,-31360.0,-20995.5,-30590.5,
45.317,-2.0164378,1.9484572,9.380657,-0.0017455816,-0.000205695632,-0.0001950385,-31616.0,-21507.5,-30590.5,
45.441,-2.0451682,1.9005732,9.375869,-0.0050763636,0.004857093,-0.0028596632,-31616.0,-20227.5,-29566.5,
45.558,-2.0212262,1.8933906,9.392629,-0.00081294776,0.0021924674,-0.005124594,-31616.0,-21763.5,-30846.5,
45.675,-2.102629,1.9388804,9.3543216,-0.006675124,0.00059369208,-0.005657519,-31872.0,-21251.5,-30078.5,
45.791,-2.0691102,1.8814196,9.327985,-0.010005906,-0.0015380084,-0.0001950385,-31360.0,-21251.5,-30334.5,
45.907,-2.018832,1.9053616,9.37108,-0.0037440508,0.0013930798,-0.002726432,-31360.0,-20995.5,-29822.5,
46.027,-2.0762928,1.934092,9.416571,-0.0049431176,0.00072692332,-0.0021935068,-31616.0,-20995.5,-30334.5,
46.143,-2.0284088,1.9412746,9.380657,-0.0057424904,0.004857093,0.000337886632,-31104.0,-20739.5,-30078.5,
46.261,-2.0140436,1.99155316,9.3543216,-0.002411738,0.0029918552,-0.0012608878,-31360.0,-21763.5,-29054.5,
46.379,-2.0379856,1.9652166,9.35911,0.0003861338,-0.004469093,0.0011372734,-30848.0,-21251.5,-30590.5,
46.495,-1.970948,1.9556398,9.38784,-0.004676655,0.012318041,-0.0035258192,-31104.0,-21251.5,-28798.5,
46.616,-1.901516,1.946063,9.373475,-0.00361080468,-0.0016712397,-0.0009944253,-32128.0,-20995.5,-30590.5,
46.733,-1.9685538,1.8838138,9.34235,0.000119671224,-0.0028703212,0.0030025114,-31616.0,-20995.5,-30334.5,
46.851,-2.0284088,1.9077558,9.34235,-0.00347757336,0.0044573956,-0.002326738,-31104.0,-20739.5,-29310.5,
46.968,-2.018832,1.9269094,9.428541,-0.006541893,0.005123552,-0.0064569064,-31360.0,-20483.5,-29822.5,
47.083,-1.9805248,1.9436688,9.404599,-0.0068083555,0.0019260049,0.00073758052,-31616.0,-20739.5,-29310.5,
47.209,-1.9924958,1.9149384,9.3543216,-0.0032111108,-0.0024706236,-0.0020602756,-31360.0,-20739.5,-30078.5,
47.327,-1.9805248,1.9197268,9.363898,-0.00081294776,0.004857093,-0.0020602756,-31360.0,-20483.5,-30078.5,
47.443,-2.0116494,1.922121,9.347138,-0.008540362,0.008321103,-0.0063236756,-31104.0,-20739.5,-29054.5,
47.558,-2.0762928,1.99155316,9.351927,-0.0053428112,-0.0035364776,7.142406e-05,-30848.0,-20227.5,-28030.5,
47.676,-1.9685538,1.9436688,9.3303792,-0.004676655,-0.0020709336,-0.0011276575,-31104.0,-20739.5,-29054.5,
47.799,-1.9278522,1.886208,9.414176,-0.0058757364,0.0045906304,0.0031357436,-31616.0,-20227.5,-29310.5,
47.916,-1.9517942,1.9245152,9.3543216,-0.010805294,0.009253722,-0.006190444,-31616.0,-20227.5,-28798.5,
48.032,-1.9613712,2.0083124,9.395022,-0.00347757336,0.0029918552,-0.0045916692,-31616.0,-20483.5,-29822.5,
48.150,-1.9733422,1.91015,9.294466,-0.0054760424,-0.0022041648,0.0027360496,-31360.0,-20483.5,-29566.5,
48.266,-2.0164378,1.86226608,9.399811,-0.0058757364,0.0077881776,-0.0019270442,-30848.0,-20227.5,-28798.5,
48.390,-1.9924958,1.9676108,9.383052,-0.0073412808,-0.0022041648,-0.0045916692,-31360.0,-20227.5,-29054.5,
48.507,-1.9661596,1.946063,9.378263,-0.00720804936,0.003791239,-0.0011276575,-31360.0,-20483.5,-29310.5,
48.624,-2.0284088,1.9149384,9.361504,0.00065259636,-0.0022041648,-0.0015273513,-31616.0,-20739.5,-28798.5,
48.741,-2.0475624,1.85268932,9.323196,-0.007474512,0.00059369208,-0.0028596632,-31872.0,-20739.5,-29822.5,
48.858,-1.9589768,1.898179,9.339956,-0.00774095936,-0.000205695632,-6.180722e-05,-31104.0,-20483.5,-29566.5,
48.981,-2.0379856,1.9245152,9.351927,-0.0060089676,6.0766936e-05,-6.180722e-05,-31104.0,-21507.5,-30846.5,
49.098,-2.0571392,1.8790254,9.38784,-0.0073412808,-0.0003389269,-0.0012608878,-31360.0,-21251.5,-29566.5,
49.214,-1.9972842,1.9149384,9.356715,-0.007474512,0.0009933859,-0.0001950385,-31104.0,-20995.5,-30590.5,
49.330,-2.0140436,1.9053616,9.337562,-0.004676655,0.008321103,-0.0025932006,-31104.0,-20995.5,-29822.5,
49.451,-2.0331972,1.9508514,9.366292,-0.00694158636,0.0012598485,-0.0028596632,-31872.0,-20483.5,-30078.5,
49.570,-1.982919,1.9197268,9.37108,-0.0022784918,0.0032583176,-0.0048581316,-31104.0,-20995.5,-28542.5,
49.685,-2.066716,1.91015,9.406994,-0.00081294776,-0.0016712397,-0.0036590504,-31616.0,-20995.5,-28798.5,
49.800,-2.0451682,1.9484572,9.385446,-0.008940056,-0.0006053895,-0.0016605817,-31616.0,-20483.5,-29822.5,
49.916,-1.9565826,1.98437036,9.3543216,-0.0030778944,-0.0028703212,-0.0003282698,-31360.0,-20227.5,-30078.5,
50.040,-2.0571392,1.9197268,9.406994,-0.0020120292,0.0016595423,0.0011372734,-31360.0,-20483.5,-29566.5,
50.157,-1.9972842,1.8933906,9.347138,-0.004276961,0.0013930798,0.0014037369,-31360.0,-20739.5,-29566.5,
50.274,-2.0738986,1.84550668,9.37108,-0.004676655,0.009520184,-0.0031261258,-31872.0,-21251.5,-29310.5,
50.396,-2.0738986,1.9005732,9.395022,-0.010272369,0.012850966,-0.007389525,-31104.0,-20483.5,-30590.5,
50.513,-1.9302464,2.0729558,9.438118,-0.0014791042,0.0029918552,-0.0008611949,-31616.0,-20483.5,-30846.5,
50.635,-1.9996784,1.9508514,9.361504,-0.00414373,0.0028586238,0.0006043492,-31360.0,-20995.5,-31358.5,
50.751,-1.9877074,1.9388804,9.366292,-0.0016123354,-0.0012715459,0.00047111884,-30848.0,-20227.5,-29054.5,
50.868,-2.1193884,1.85029508,9.332773,0.0063815416,0.00072692332,-0.0012608878,-31616.0,-20227.5,-28798.5,
50.986,-1.99489,1.9556398,9.368687,-0.00933975,0.0041909368,-0.0043252064,-30848.0,-20227.5,-29054.5,
51.100,-2.0140436,2.0059182,9.416571,-0.006541893,0.0011266135,-0.003925513,-31360.0,-20483.5,-29566.5,
51.222,-1.9901016,1.98676468,9.380657,0.0013187528,-0.0024706236,0.00020465534,-31360.0,-20483.5,-28798.5,
51.341,-2.018832,1.8838138,9.351927,-0.0013458729,-0.0011383183,-0.0011276575,-31360.0,-20995.5,-28798.5,
51.458,-1.9996784,1.9077558,9.363898,-0.004809886,0.0013930798,0.0022031236,-31360.0,-20227.5,-29566.5,
51.575,-2.0355914,1.9269094,9.397417,-0.005609274,0.0029918552,-0.00339258784,-31360.0,-20227.5,-30078.5,
51.692,-2.054745,1.898179,9.316014,0.000785827636,0.00019399822,0.0011372734,-31872.0,-20995.5,-29822.5,
51.816,-2.0523508,1.83114136,9.392629,-0.00361080468,0.0020592324,-0.0047249004,-31360.0,-20483.5,-29310.5,
51.935,-2.0451682,1.922121,9.344745,-0.00720804936,0.004723858,-0.005923982,-31360.0,-19971.5,-29054.5,
52.052,-1.9589768,1.9508514,9.402205,-0.0014791042,0.00072692332,0.000337886632,-31616.0,-20227.5,-30334.5,
52.170,-2.018832,1.898179,9.34235,-0.00081294776,0.0012598485,-0.0005947314,-30848.0,-20739.5,-29310.5,
52.285,-2.054745,1.8814196,9.38784,-0.0012126416,0.00019399822,-0.003925513,-30848.0,-20483.5,-29566.5,
52.406,-2.0523508,1.8790254,9.375869,-0.008540362,0.0053900144,-0.004458438,-30848.0,-19971.5,-29310.5,
52.522,-1.970948,1.898179,9.37108,-0.00067971648,0.0064558648,-0.002726432,-30848.0,-19971.5,-30078.5,
52.636,-2.0571392,1.898179,9.311226,-0.0012126416,0.0003272295,-6.180722e-05,-30848.0,-20227.5,-29054.5,
52.751,-2.0403798,1.9029674,9.363898,-0.009739429,0.0013930798,-0.0028596632,-31360.0,-20739.5,-29054.5,
52.868,-1.9781306,1.9436688,9.3543216,-0.006142199,6.0766936e-05,-0.0016605817,-31360.0,-20227.5,-29054.5,
52.991,-2.0020726,1.87423716,9.301649,-0.00520958,0.00059369208,-0.0037922818,-31104.0,-19971.5,-30078.5,
53.109,-2.0691102,1.9628224,9.34235,-0.0062754304,0.0049903208,-0.0048581316,-31360.0,-20227.5,-29566.5,
53.225,-1.9158812,1.9771876,9.380657,-0.0068083555,-0.000871852064,-0.0028596632,-31360.0,-20227.5,-28798.5,
53.344,-1.9446116,1.9604282,9.411782,-0.00347757336,0.0013930798,0.00073758052,-32128.0,-20739.5,-29822.5,
53.468,-2.0403798,1.8814196,9.385446,0.0005193651,-0.0063343348,0.0016701994,-31616.0,-20483.5,-29310.5,
53.585,-2.0643218,1.85029508,9.3064376,-0.00520958,0.0096534152,-0.0049913632,-31616.0,-20995.5,-30078.5,
53.703,-1.9661596,1.99873568,9.325591,-0.00028002262,-0.0012715459,-0.0020602756,-31104.0,-20483.5,-29822.5,
53.822,-2.1098116,1.9053616,9.3543216,0.0005193651,0.0049903208,0.000337886632,-31360.0,-20739.5,-30078.5,
53.940,-2.138542,1.9436688,9.402205,-0.009872675,0.0064558648,-0.0049913632,-31616.0,-20483.5,-28798.5,
54.061,-1.9733422,1.9436688,9.327985,-0.006541893,0.0045906304,-0.0003282698,-31616.0,-20483.5,-29310.5,
54.178,-2.0499566,1.886208,9.337562,-0.0022784918,-0.0032700152,0.0034022052,-31104.0,-20227.5,-29310.5,
54.294,-2.0403798,1.81917036,9.395022,-0.0016123354,0.0025921612,-0.0024599694,-31872.0,-20739.5,-30334.5,
54.413,-2.0331972,1.8814196,9.392629,-0.004809886,0.009386953,-0.002326738,-31616.0,-20995.5,-30078.5,
54.529,-1.9182754,2.0561964,9.406994,-0.014136061,0.004857093,-0.005657519,-31360.0,-20995.5,-30846.5,
54.650,-2.030803,1.9293036,9.409388,0.0005193651,-0.0023373962,0.003801899,-31360.0,-20739.5,-28798.5,
54.765,-2.1672724,1.9077558,9.349533,-0.0026781856,0.0063226336,0.0020698932,-31616.0,-20995.5,-29822.5,
54.882,-2.0978406,1.922121,9.366292,-0.0092065184,-0.0006053895,-0.0035258192,-31616.0,-20995.5,-29054.5,
54.998,-2.0092552,1.85508352,9.327985,-0.0082739,0.0032583176,-0.003259357,-31872.0,-20739.5,-30334.5,
55.115,-2.066716,1.98915884,9.316014,-0.010405585,0.00179276984,-0.0009944253,-31104.0,-20739.5,-29310.5,
55.238,-1.9278522,1.9795818,9.361504,-0.006541893,0.004723858,0.000337886632,-30848.0,-20739.5,-30078.5,
55.355,-1.970948,1.8790254,9.447695,-0.00361080468,0.0053900144,-0.0025932006,-31104.0,-20995.5,-30334.5,
55.472,-2.0212262,1.82156468,9.385446,-0.0101391376,0.005123552,-0.0047249004,-31360.0,-21251.5,-28798.5,
55.590,-1.9350348,1.99634136,9.409388,-0.00081294776,0.00179276984,-0.0003282698,-31360.0,-20995.5,-28286.5,
55.708,-2.1888202,1.800017,9.337562,-0.0017455816,-0.005002022,0.0006043492,-30848.0,-20227.5,-29054.5,
55.832,-2.0499566,1.922121,9.37108,-0.008007437,0.0027253888,-0.007123063,-31104.0,-20483.5,-28286.5,
55.947,-1.9972842,1.91015,9.292072,-0.004676655,0.003791239,0.0022031236,-31360.0,-20483.5,-29310.5,
56.061,-2.0523508,1.8909964,9.375869,-0.0016123354,-0.008066338,0.002336355,-31104.0,-20739.5,-29054.5,
56.177,-1.9637654,1.98915884,9.395022,-0.00361080468,0.005256787,-0.0021935068,-31360.0,-20227.5,-29566.5,
56.295,-2.030803,1.8790254,9.399811,-0.0058757364,0.0009933859,-0.0005947314,-30848.0,-20995.5,-29822.5,
56.417,-2.0691102,1.83353568,9.411782,-0.00361080468,0.003924474,-0.0043252064,-30848.0,-20227.5,-28542.5,
56.536,-2.0451682,1.8909964,9.356715,-0.016400992,0.006056171,-0.0045916692,-31360.0,-21251.5,-28798.5,
56.652,-2.2654348,1.9412746,9.368687,-0.0021452606,0.0012598485,-0.0037922818,-31616.0,-20483.5,-29310.5,
56.771,-2.1960028,1.81677632,9.450089,0.0003861338,-0.00273709,-0.002726432,-31360.0,-20227.5,-29054.5,
56.886,-2.0715044,1.87184284,9.399811,-0.0010794252,0.008987259,-0.0045916692,-31616.0,-20995.5,-29822.5,
57.010,-1.9494,2.0466196,9.452483,-0.0053428112,-0.0047355556,0.0026028176,-31616.0,-20483.5,-29566.5,
57.126,-2.0116494,1.80480532,9.392629,-0.0022784918,0.0033915452,7.142406e-05,-31360.0,-21251.5,-29310.5,
57.243,-2.1696666,2.0298602,9.332773,-0.0013458729,0.0008601546,-0.00046150108,-31616.0,-20483.5,-29310.5,
57.360,-1.8799682,1.98437036,9.318408,0.0059818328,-0.0034032464,0.0030025114,-31616.0,-20995.5,-29310.5,
57.479,-2.0499566,1.9269094,9.356715,-0.0038772672,0.006189406,-0.0008611949,-30848.0,-20739.5,-30334.5,
57.601,-2.126571,1.9771876,9.392629,-0.0029446482,-0.0016712397,-0.0009944253,-30848.0,-20739.5,-29310.5,
57.718,-2.0020726,1.8479009,9.399811,0.001451984,6.0766936e-05,-0.00046150108,-31104.0,-20227.5,-28542.5,
57.836,-2.5216144,0.89979692,9.181939,-0.013070211,0.01218481,-0.03150438,-31360.0,-19203.5,-29822.5,
57.951,-1.8440552,2.2501268,9.380657,-0.01866594,0.013517121,-0.019913262,30336.0,-17411.5,-29310.5,
58.073,-1.9230638,1.9484572,9.320803,0.0041166096,-0.007533416,0.0044680556,30336.0,-17923.5,-31870.5,
58.190,-2.1050232,1.81198784,9.385446,-0.00361080468,-0.000205695632,0.0015369672,32640.0,-18947.5,-29566.5,
58.309,-2.0116494,2.0921094,9.349533,-0.0054760424,0.0055232496,-0.0052578252,-31360.0,-20483.5,-29566.5,
58.426,-1.9326406,2.0681674,9.361504,-0.003344342,-0.0026038588,0.0018034298,-30848.0,-20483.5,-29310.5,
58.542,-2.0044668,1.9077558,9.3064376,-0.004676655,6.0766936e-05,-0.00339258784,-31104.0,-20227.5,-30334.5,
58.666,-2.0882638,1.87423716,9.402205,0.0005193651,6.0766936e-05,0.0020698932,-30848.0,-20483.5,-29566.5,
58.784,-1.9589768,1.9005732,9.37108,-0.0017455816,0.0059229432,-0.0028596632,-30848.0,-20227.5,-29822.5,
58.899,-1.9589768,1.9484572,9.349533,-0.0025449544,-0.006600797,0.0014037369,-30848.0,-19459.5,-29566.5,
59.016,-1.937429,1.87663132,9.421359,-0.00774095936,-0.0003389269,-0.0048581316,-30848.0,-19971.5,-29310.5,
59.135,-1.9805248,1.85987184,9.351927,-0.005609274,0.0013930798,-0.00685660036,-30848.0,-20227.5,-29822.5,
59.259,-1.99489,1.9053616,9.418964,0.0073141452,-0.006600797,0.0022031236,-31104.0,-20227.5,-28798.5,
59.374,-2.018832,1.79283432,9.428541,-0.0030778944,0.005256787,0.0026028176,-31104.0,-20995.5,-29310.5,
59.491,-2.078687,1.84550668,9.395022,-0.010272369,0.00725525236,-0.003925513,-31104.0,-21763.5,-30078.5,
59.608,-2.0475624,1.9652166,9.409388,-0.012137607,0.0068555624,-0.005923982,-31360.0,-20995.5,-29310.5,
59.724,-1.937429,1.9316978,9.395022,-0.009872675,0.0025921612,-0.002726432,-31616.0,-20739.5,-30078.5,
59.845,-1.9350348,1.934092,9.318408,0.007180929,6.0766936e-05,-0.0019270442,-30848.0,-21507.5,-30078.5,
59.961,-2.0475624,1.87423716,9.380657,-0.0058757364,0.0041909368,0.0015369672,-30848.0,-20995.5,-29310.5,
60.079,-1.9158812,2.0107066,9.38784,0.012776643,-0.005401712,0.0050009796,-30848.0,-20995.5,-29566.5,
60.195,-2.0116494,1.8479009,9.38784,0.0039833636,-0.0024706236,0.001004043,-30592.0,-21251.5,-29566.5,
60.313,-2.315713,1.78565168,9.418964,-0.010805294,0.008854028,-0.00685660036,-30848.0,-20739.5,-29310.5,
60.436,-1.7770176,1.86226608,9.514732,-0.012537301,0.008587565,-0.0028596632,-31104.0,-19459.5,-28542.5,
60.553,-1.6429422,1.71143132,9.423753,0.010644928,-0.013662051,0.01046346,31104.0,-18435.5,-28030.5,
60.671,-2.0643218,1.6827009,9.373475,-0.0021452606,0.0063226336,-0.002726432,32128.0,-19203.5,-29566.5,
60.789,-1.9446116,1.9077558,9.411782,-0.012137607,0.013517121,-0.012585543,-31360.0,-20227.5,-29054.5,
60.906,-1.877574,1.84550668,9.411782,-0.0029446482,0.0077881776,-0.0008611949,-31104.0,-20995.5,-28542.5,
61.029,-2.1696666,1.98437036,9.430936,-0.002811417,0.0013930798,-0.000727963636,-31360.0,-20739.5,-29054.5,
61.148,-1.9972842,1.8790254,9.35911,-0.001878798,0.0041909368,-0.0008611949,-31360.0,-20995.5,-28286.5,
61.263,-2.006861,1.9173326,9.363898,-0.00081294776,0.0059229432,-0.0040587444,-31104.0,-20739.5,-29054.5,
61.380,-1.9901016,1.946063,9.395022,-0.007607743,6.0766936e-05,-0.00339258784,-30848.0,-20995.5,-28542.5,
61.497,-2.0571392,1.8838138,9.349533,-0.0026781856,0.0019260049,-0.002726432,-31104.0,-20483.5,-28798.5,
61.627,-2.0858696,1.9077558,9.344745,-0.0068083555,-0.0003389269,-0.0045916692,-31360.0,-20739.5,-29054.5,
61.745,-1.970948,1.9556398,9.46206,-0.00028002262,0.001526311,-0.0037922818,-31872.0,-20995.5,-29310.5,
61.862,-2.0451682,1.9388804,9.385446,-0.0022784918,-0.0039361716,-6.180722e-05,-31360.0,-20995.5,-29822.5,
61.979,-1.9565826,1.9149384,9.35911,-0.002811417,0.0040577016,-0.0065901376,-31360.0,-21251.5,-29054.5,
62.095,-2.0379856,1.9197268,9.332773,-0.00520958,0.0023256988,-0.0015273513,-30592.0,-20739.5,-29310.5,
62.216,-1.9661596,1.9723992,9.423753,-0.00361080468,0.0031250828,0.000337886632,-30848.0,-20995.5,-29566.5,
62.335,-1.982919,1.9388804,9.390234,-0.0049431176,-0.000205695632,-0.0035258192,-31104.0,-20739.5,-29054.5,
62.453,-1.99489,1.9293036,9.366292,-0.002411738,0.00179276984,-0.00046150108,-30848.0,-20739.5,-29054.5,
62.569,-2.1720608,1.7712865,9.287284,-0.0053428112,0.0031250828,-0.000727963636,-31104.0,-21251.5,-28030.5,
62.694,-1.9996784,1.9316978,9.385446,-0.011604682,0.0024589264,-0.00339258784,-30848.0,-22787.5,-29054.5,
62.813,-1.9613712,1.9771876,9.349533,-0.006675124,0.0057897084,-0.0048581316,-30848.0,-24067.5,-29566.5,
62.929,-2.0284088,1.9747934,9.3543216,-0.007607743,0.0013930798,-0.0009944253,-31360.0,-25859.5,-30334.5,
63.046,-1.9877074,1.9412746,9.423753,-0.0073412808,0.000460457068,-0.0013941191,-32640.0,-26371.5,-31358.5,
63.165,-1.9541884,1.9388804,9.347138,-0.014002845,0.0027253888,-0.0072562936,30336.0,-26115.5,-31614.5,
63.288,-1.853632,1.9604282,9.442906,-0.011071742,0.0032583176,-0.0025932006,28032.0,-23299.5,-32126.5,
63.404,-2.0284088,1.86226608,9.392629,-0.00067971648,-7.246435e-05,0.001004043,27264.0,-20739.5,-30846.5,
63.522,-2.2055798,2.2070312,9.395022,-0.0016123354,0.007122021,-0.0035258192,28032.0,-21763.5,-31870.5,
63.639,-2.0643218,2.0370428,9.418964,-0.008140668,0.0152491268,-0.009254763,28032.0,-23555.5,-31870.5,
63.756,-1.9757364,1.8909964,9.380657,0.002384603,0.0025921612,0.000337886632,27264.0,-23299.5,-30590.5,
63.879,-1.9517942,1.8838138,9.454878,0.000919044,-0.0032700152,0.00366866784,27008.0,-22787.5,-32126.5,
63.996,-2.0355914,1.87663132,9.380657,-0.002811417,0.0045906304,-0.001793813,27776.0,-22787.5,-31870.5,
64.113,-2.030803,1.9532456,9.35911,-0.0073412808,0.0053900144,-0.0021935068,27520.0,-21763.5,-32382.5,
64.228,-2.0284088,1.9197268,9.421359,-0.001878798,0.0008601546,-0.0015273513,27776.0,-20227.5,-30590.5,
64.344,-1.9565826,1.958034,9.356715,-0.006675124,0.0019260049,-0.002726432,30848.0,-18179.5,-28542.5,
64.466,-2.0284088,1.9293036,9.375869,-0.0068083555,0.0028586238,7.142406e-05,-30592.0,-22019.5,-28542.5,
64.585,-2.0475624,1.886208,9.332773,-0.00014679134,0.001526311,-0.004458438,-31360.0,-24835.5,-28542.5,
64.700,-2.0164378,2.015495,9.37108,-0.005609274,-0.0020709336,-0.0024599694,-31360.0,-24579.5,-29566.5,
64.815,-2.0715044,1.922121,9.395022,-0.0013458729,0.0016595423,-0.00685660036,-30848.0,-23555.5,-29054.5,
64.933,-1.9901016,1.9484572,9.406994,-0.0037440508,0.0024589264,0.00073758052,-30848.0,-22787.5,-28286.5,
65.056,-1.9422174,1.8933906,9.34235,-0.0010794252,-0.00313678,0.003268974,-30848.0,-22275.5,-28798.5,
65.170,-2.0451682,1.86226608,9.404599,0.00065259636,0.00072692332,-0.0015273513,-30592.0,-22275.5,-29054.5,
65.289,-2.0044668,1.99155316,9.356715,-0.0029446482,0.0033915452,-0.001793813,-30592.0,-23043.5,-29566.5,
65.407,-1.925458,1.9436688,9.347138,-0.002811417,0.01325066,-0.0019270442,-30592.0,-22787.5,-29310.5,
65.522,-2.102629,1.80241108,9.423753,-0.002811417,-0.000205695632,-0.001793813,-31104.0,-22531.5,-29566.5,
65.645,-2.0403798,1.87184284,9.375869,0.0015852153,0.00805464,-0.0001950385,-30592.0,-23043.5,-29054.5,
65.762,-1.9972842,2.0226776,9.363898,-0.0060089676,-0.0023373962,0.00366866784,-30848.0,-22787.5,-29566.5,
65.881,-2.0523508,1.9652166,9.320803,-0.0050763636,-0.0035364776,-6.180722e-05,-30848.0,-22787.5,-30078.5,
65.997,-1.9781306,1.9436688,9.452483,-0.0060089676,-0.000871852064,-0.0035258192,-31104.0,-23043.5,-29054.5,
66.115,-2.186426,1.6348169,9.392629,0.0019849092,-0.0003389269,0.0024695872,-31104.0,-24067.5,-30334.5,
66.237,-1.9996784,2.0490138,9.378263,-0.011071742,0.0035247804,-0.007123063,-30592.0,-23555.5,-28798.5,
66.355,-2.0116494,1.9747934,9.435724,-0.0025449544,0.00738848368,-0.0029928944,-30592.0,-23043.5,-29822.5,
66.474,-2.042774,1.9077558,9.347138,-0.003344342,0.007122021,-0.0015273513,-30592.0,-23811.5,-30590.5,
66.589,-2.1074174,1.87423716,9.325591,-0.0022784918,0.0020592324,0.0014037369,-30848.0,-23043.5,-29054.5,
66.708,-2.0355914,1.9508514,9.404599,-0.015201926,0.00019399822,-0.0003282698,-31360.0,-23299.5,-30590.5,
66.831,-2.0475624,1.82156468,9.392629,-0.006541893,0.0025921612,0.00047111884,-31616.0,-23299.5,-29566.5,
66.949,-2.0451682,1.86944868,9.435724,-0.0017455816,0.005256787,0.00087081176,-30848.0,-23299.5,-29054.5,
67.067,-2.0164378,1.98915884,9.438118,-0.007874206,-0.0010050833,-0.0024599694,-30848.0,-23043.5,-28542.5,
67.185,-2.0236204,1.8287473,9.356715,-0.011204988,0.0021924674,-0.003259357,-30848.0,-23299.5,-29822.5,
67.309,-2.066716,1.8909964,9.421359,-0.011737898,0.0059229432,-0.0019270442,-31104.0,-23555.5,-29822.5,
67.425,-2.0379856,1.9364862,9.428541,0.0005193651,0.0055232496,0.0011372734,-30848.0,-24067.5,-30078.5,
67.542,-1.9924958,1.87423716,9.344745,-0.007074803,0.0064558648,-0.0005947314,-30848.0,-23299.5,-29822.5,
67.660,-1.8943334,2.0825326,9.361504,-0.0062754304,0.0019260049,-0.004458438,-31104.0,-23299.5,-29566.5,
67.778,-1.9924958,1.99873568,9.327985,-0.002811417,-0.0012715459,0.00087081176,-30336.0,-23299.5,-29310.5,
67.902,-1.9494,1.9795818,9.296861,0.006514773,-0.0083328,0.002336355,-30592.0,-23043.5,-29310.5,
68.015,-2.0954464,1.8790254,9.411782,-0.0029446482,0.0064558648,-0.0005947314,-30336.0,-23043.5,-30590.5,
68.132,-2.0810812,1.8957848,9.373475,-0.0057424904,-0.0022041648,-0.0031261258,-31104.0,-24067.5,-28798.5,
68.249,-1.9326406,1.98437036,9.416571,-0.007874206,0.0044573956,-0.004191975,-30592.0,-23299.5,-29310.5,
68.367,-2.0260146,1.9628224,9.37108,-0.00720804936,0.0013930798,-0.0009944253,-30592.0,-23555.5,-28030.5,
68.490,-2.018832,1.9723992,9.390234,0.0034504532,0.00019399822,0.00286928,-30848.0,-23299.5,-28798.5,
68.605,-2.066716,1.87423716,9.349533,0.0022513718,-0.0030035526,0.0011372734,-30336.0,-23555.5,-28286.5,
68.723,-1.9972842,1.9293036,9.378263,-0.00694158636,0.0040577016,-0.0028596632,-30336.0,-23811.5,-29310.5,
68.841,-2.006861,1.91015,9.375869,-0.00361080468,0.0020592324,-0.003259357,-31360.0,-23555.5,-28542.5,
68.956,-2.0164378,1.87423716,9.366292,-0.005609274,0.0011266135,-0.0013941191,-31360.0,-22787.5,-29054.5,
69.080,-2.0355914,1.958034,9.356715,-0.00347757336,-0.000738620736,0.00087081176,-30848.0,-23299.5,-29310.5,
69.199,-1.970948,1.946063,9.414176,-0.0017455816,-0.0024706236,-6.180722e-05,-30592.0,-23299.5,-29310.5,
69.314,-1.99489,1.9508514,9.409388,-0.008140668,0.0068555624,-0.0043252064,-30592.0,-22787.5,-28798.5,
69.429,-2.102629,1.9388804,9.395022,-0.0044102072,0.003791239,0.00087081176,-30848.0,-23555.5,-29054.5,
69.545,-2.0379856,1.9771876,9.383052,-0.00774095936,0.0032583176,-0.0001950385,-31104.0,-23555.5,-28798.5,
69.669,-2.1193884,1.8814196,9.428541,-0.0025449544,-0.00273709,0.004734517,-30848.0,-22787.5,-29822.5,
69.784,-1.9326406,1.9939473,9.383052,-0.0022784918,0.004857093,-0.0064569064,-30848.0,-23043.5,-29054.5,
69.902,-2.1337536,1.9125442,9.363898,-0.00520958,0.0044573956,-0.0013941191,-30080.0,-23299.5,-29566.5,
70.018,-1.8967276,1.9173326,9.390234,-0.014402524,0.009520184,-0.0065901376,-29824.0,-23811.5,-30590.5,
70.134,-1.9541884,2.0538022,9.366292,-0.00014679134,0.0024589264,0.004334824,-30336.0,-23043.5,-30590.5,
70.257,-2.0044668,1.9604282,9.344745,-0.0017455816,-0.0015380084,0.0016701994,-29824.0,-23299.5,-30590.5,
70.374,-2.0643218,1.9005732,9.454878,-0.0054760424,0.0044573956,0.0011372734,-29312.0,-22275.5,-30334.5,
70.491,-2.0260146,1.8790254,9.34235,-0.005609274,0.0040577016,-0.005124594,-30336.0,-23043.5,-30590.5,
70.606,-1.9685538,2.0178892,9.368687,0.0026510656,-0.0015380084,0.0020698932,-30848.0,-22531.5,-30590.5,
70.723,-2.2055798,1.82635316,9.335168,0.0002528876,-0.0059346408,-0.00046150108,-30592.0,-22275.5,-30334.5,
70.847,-1.9996784,1.9245152,9.378263,-0.0044102072,0.0043241644,-0.0040587444,-30848.0,-22019.5,-30590.5,
70.964,-1.9063044,2.0538022,9.392629,-0.0032111108,0.0067223272,-0.0029928944,-30848.0,-22275.5,-29566.5,
71.081,-2.0140436,1.9676108,9.399811,-0.0040104984,0.009520184,-0.006190444,-31104.0,-22787.5,-29822.5,
71.196,-2.0212262,1.9628224,9.418964,-0.006142199,0.004723858,-0.0019270442,-31104.0,-22787.5,-29310.5,
71.312,-2.1313594,1.9245152,9.363898,-0.00028002262,0.0028586238,-0.0019270442,-30848.0,-22787.5,-29566.5,
71.436,-2.0212262,1.9005732,9.361504,-0.0029446482,0.0027253888,-0.0005947314,-30592.0,-23555.5,-29566.5,
71.552,-2.1098116,1.87184284,9.414176,0.0005193651,0.0009933859,-0.000727963636,-30848.0,-23043.5,-29310.5,
71.670,-1.9805248,1.9652166,9.373475,-0.0062754304,0.000460457068,0.0006043492,-30592.0,-23299.5,-30334.5,
71.787,-2.0164378,1.898179,9.392629,-0.0057424904,0.0045906304,-0.0009944253,-30592.0,-22531.5,-28798.5,
71.910,-2.0140436,1.934092,9.363898,-0.0030778944,0.0057897084,-0.0013941191,-30848.0,-23043.5,-28798.5,
72.026,-2.006861,1.9293036,9.356715,-0.0038772672,0.00019399822,0.0011372734,-30592.0,-23299.5,-29822.5,
72.143,-1.9901016,1.9484572,9.356715,-0.001878798,0.00072692332,0.0027360496,-30080.0,-23299.5,-28798.5,
72.259,-2.0355914,1.9149384,9.392629,-0.0016123354,-0.000738620736,0.0016701994,-30848.0,-23811.5,-30078.5,
72.378,-1.9589768,1.91015,9.363898,-0.0020120292,0.0027253888,-0.0020602756,-30848.0,-22787.5,-28542.5,
72.499,-2.0715044,1.9388804,9.35911,0.0005193651,-0.0059346408,0.004734517,-30592.0,-23299.5,-29054.5,
72.615,-2.0236204,1.87423716,9.409388,-0.0054760424,0.006056171,-0.0024599694,-31104.0,-23299.5,-29822.5,
72.739,-2.0954464,1.8909964,9.366292,-0.0082739,0.0019260049,-0.0037922818,-31104.0,-23043.5,-29566.5,
72.858,-1.8632088,2.0585906,9.406994,-0.00720804936,0.0019260049,-0.00339258784,-30592.0,-22787.5,-29822.5,
72.978,-2.0738986,1.84311252,9.426147,-0.003344342,-0.000871852064,-0.000727963636,-30848.0,-23043.5,-29310.5,
73.104,-2.1433304,1.9293036,9.445301,-0.010405585,0.0049903208,-0.0020602756,-30336.0,-22787.5,-30846.5,
73.222,-2.0140436,1.99155316,9.395022,-0.009472981,0.0041909368,-0.0036590504,-31360.0,-23299.5,-29822.5,
73.339,-1.9685538,1.9532456,9.416571,-0.0025449544,0.00059369208,0.006599755,-30848.0,-23555.5,-29310.5,
73.456,-1.99489,1.9771876,9.421359,-0.0017455816,0.0008601546,-0.0016605817,-30592.0,-23043.5,-29566.5,
73.571,-1.9685538,1.9556398,9.421359,-0.0053428112,0.0012598485,-0.0053910568,-31104.0,-23555.5,-29566.5,
73.710,-2.0643218,1.9364862,9.301649,-0.007874206,0.0020592324,-0.0013941191,-30848.0,-23555.5,-30334.5,
73.827,-2.0571392,1.8479009,9.351927,-0.0014791042,0.0043241644,0.002336355,-30592.0,-22787.5,-30590.5,
73.945,-1.9613712,1.934092,9.375869,-0.0038772672,0.009786647,-0.0015273513,-31104.0,-23299.5,-29822.5,
74.061,-2.0858696,1.8933906,9.378263,0.005582154,0.00019399822,0.0040683616,-30592.0,-23555.5,-30078.5,
74.178,-2.0523508,1.9508514,9.361504,-0.002811417,6.0766936e-05,0.00020465534,-30848.0,-23811.5,-29054.5,
74.301,-2.090658,1.9604282,9.390234,-0.010405585,-0.00180447468,-0.0012608878,-30592.0,-23299.5,-30590.5,
74.419,-2.030803,2.0202834,9.397417,-0.0082739,-0.0043358652,-0.0040587444,-31104.0,-23299.5,-29822.5,
74.534,-1.9877074,1.9628224,9.351927,-0.0012126416,0.0009933859,0.00193666116,-30848.0,-23299.5,-30078.5,
74.652,-2.0379856,1.8838138,9.406994,-0.0040104984,0.0025921612,-0.0019270442,-31104.0,-23299.5,-30590.5,
74.770,-2.0355914,1.9556398,9.3543216,-0.008940056,0.004723858,-0.0015273513,-30848.0,-23555.5,-29822.5,
74.892,-2.0260146,1.91015,9.356715,-0.0062754304,0.003924474,-0.0049913632,-30848.0,-23299.5,-29566.5,
75.007,-1.9972842,1.9197268,9.421359,-0.0030778944,0.0016595423,-0.0025932006,-30080.0,-23043.5,-29566.5,
75.125,-2.0355914,1.9652166,9.435724,0.0005193651,0.0021924674,-0.0036590504,-30336.0,-23811.5,-28542.5,
75.242,-2.0475624,1.9077558,9.356715,-0.0044102072,-0.0020709336,0.0024695872,-30592.0,-23555.5,-29054.5,
75.359,-1.9877074,1.83592984,9.397417,-0.0054760424,0.0041909368,-0.0029928944,-30592.0,-23555.5,-29310.5,
75.483,-1.9158812,1.9005732,9.392629,-0.004676655,-0.0003389269,-0.0020602756,-30848.0,-23555.5,-29310.5,
75.599,-1.9996784,1.9197268,9.361504,-0.0073412808,0.0020592324,-0.0008611949,-31104.0,-23555.5,-29054.5,
75.715,-2.0930522,1.9173326,9.409388,-0.0038772672,-0.000205695632,-0.000727963636,-30848.0,-23299.5,-29054.5,
75.835,-1.9996784,1.9556398,9.418964,-0.0030778944,0.001526311,0.00087081176,-31104.0,-23299.5,-28542.5,
75.957,-2.1337536,1.8933906,9.399811,-0.009872675,0.0029918552,-0.004191975,-30080.0,-23043.5,-28030.5,
76.073,-2.0260146,1.99873568,9.390234,-0.0022784918,0.006189406,0.0006043492,-30848.0,-23043.5,-29310.5,
76.190,-1.9039102,1.9676108,9.363898,-0.004276961,-0.0015380084,-0.0025932006,-30848.0,-23043.5,-29310.5,
76.307,-2.0738986,1.85029508,9.344745,-0.004676655,6.0766936e-05,0.0006043492,-30848.0,-23811.5,-29822.5,
76.424,-1.9972842,1.9293036,9.378263,-0.00081294776,0.0059229432,0.0006043492,-30336.0,-23299.5,-29566.5,
76.546,-2.0020726,1.9412746,9.34235,-0.003344342,-0.0043358652,-0.0015273513,-30592.0,-23299.5,-29310.5,
76.663,-2.0260146,1.9412746,9.380657,-0.009472981,0.003791239,-0.0028596632,-30592.0,-23555.5,-29054.5,
76.779,-2.054745,1.922121,9.351927,-0.0044102072,0.00072692332,0.0020698932,-30592.0,-23299.5,-30078.5,
76.894,-2.0236204,1.9125442,9.363898,-0.0038772672,0.00725525236,0.0006043492,-31104.0,-23299.5,-29822.5,
77.011,-1.9589768,1.9604282,9.37108,-0.007874206,-0.000205695632,-0.001793813,-30592.0,-23043.5,-29566.5,
77.133,-1.9517942,1.9005732,9.356715,-0.0038772672,-0.000738620736,0.00087081176,-30848.0,-23299.5,-30334.5,
77.252,-2.006861,1.9149384,9.383052,-0.0016123354,0.0003272295,0.004334824,-30592.0,-23043.5,-29054.5,
77.367,-2.0403798,1.9316978,9.344745,-0.009472981,0.0013930798,-0.0011276575,-31104.0,-23043.5,-29054.5,
77.484,-2.0403798,1.9604282,9.349533,-0.009739429,0.0043241644,-0.006723369,-30848.0,-23299.5,-29822.5,
77.601,-2.0260146,1.9508514,9.35911,-0.0032111108,0.0031250828,-0.0015273513,-30848.0,-23555.5,-30334.5,
77.724,-1.9206696,1.98915884,9.378263,-0.0058757364,0.0011266135,0.0012705056,-30336.0,-23043.5,-29822.5,
77.842,-2.0451682,1.9556398,9.414176,0.0053156764,-0.0070004872,0.004201592,-30336.0,-23299.5,-29566.5,
77.959,-1.99489,1.85268932,9.3303792,-0.00067971648,0.0029918552,-0.0029928944,-29824.0,-23299.5,-30078.5,
78.077,-2.0331972,1.8886022,9.399811,-0.00067971648,0.0040577016,-0.003925513,-30336.0,-23811.5,-30334.5,
78.193,-1.9398232,1.9676108,9.399811,-0.0029446482,0.0016595423,-0.0016605817,-31360.0,-23555.5,-29822.5,
78.317,-1.8991218,2.159147,9.368687,-0.0082739,-0.0022041648,-0.0020602756,-30592.0,-23299.5,-30590.5,
78.432,-2.1289652,1.9125442,9.351927,0.0058486164,-0.012196507,0.0054006736,-30336.0,-22787.5,-29822.5,
78.550,-2.0355914,1.9269094,9.327985,-0.014136061,-0.0012715459,-0.0025932006,-30848.0,-23043.5,-29822.5,
78.667,-1.9494,1.9939473,9.390234,-0.012270838,0.0027253888,-0.0031261258,-31104.0,-23555.5,-30590.5,
78.784,-2.0236204,1.946063,9.332773,0.0010522902,-0.010198042,0.0014037369,-30592.0,-23299.5,-30334.5,
78.907,-2.1098116,1.9149384,9.349533,-0.009739429,0.0031250828,-0.0031261258,-30848.0,-23299.5,-30078.5,
79.024,-1.9781306,1.9197268,9.349533,-0.008806825,0.0025921612,0.0014037369,-30592.0,-23555.5,-30078.5,
79.141,-1.937429,1.9316978,9.351927,-0.004276961,0.0029918552,-6.180722e-05,-30336.0,-23555.5,-29054.5,
79.256,-1.9685538,1.9676108,9.366292,-0.00414373,0.004857093,0.00087081176,-30080.0,-22787.5,-29822.5,
79.372,-1.9996784,1.91015,9.35911,-0.00520958,0.00725525236,-0.005524288,-30592.0,-23043.5,-30078.5,
79.491,-1.9924958,2.0801384,9.404599,-0.0014791042,0.000460457068,-0.0016605817,-30336.0,-23043.5,-29822.5,
79.610,-2.0595334,1.9077558,9.404599,-0.0026781856,-0.0023373962,-6.180722e-05,-31360.0,-23555.5,-29822.5,
79.727,-2.090658,1.87423716,9.395022,-0.00520958,0.0008601546,-0.002326738,-30336.0,-23555.5,-28798.5,
79.842,-2.1146,1.82156468,9.418964,-0.0020120292,-0.000871852064,-0.004191975,-30080.0,-22787.5,-30078.5,
79.965,-2.0475624,1.98676468,9.373475,-0.009739429,0.005656477,-0.006723369,-31104.0,-23043.5,-29566.5,
80.081,-1.9278522,2.0346486,9.323196,-0.0062754304,0.0049903208,-0.008055681,-30848.0,-23043.5,-28542.5,
80.198,-1.9470058,2.0442254,9.414176,-0.0030778944,6.0766936e-05,0.0011372734,-30848.0,-23555.5,-30078.5,
80.316,-2.0643218,1.9269094,9.390234,-0.0050763636,0.0029918552,-0.0019270442,-30336.0,-22787.5,-29822.5,
80.433,-1.9996784,1.9604282,9.442906,-0.00694158636,0.003924474,-0.003259357,-31104.0,-23043.5,-30334.5,
80.555,-1.99489,1.9652166,9.301649,-0.007607743,0.0016595423,-0.006723369,-31360.0,-22531.5,-30078.5,
80.670,-2.0475624,1.9316978,9.373475,-0.0013458729,0.0044573956,-0.0036590504,-30848.0,-22531.5,-31102.5,
80.788,-1.9733422,1.99873568,9.368687,-0.0026781856,-0.0020709336,0.0034022052,-30592.0,-22787.5,-30590.5,
80.907,-2.1337536,1.83353568,9.308831,-0.012137607,-0.0015380084,-0.0035258192,-31104.0,-23299.5,-30334.5,
81.025,-2.1146,1.9508514,9.339956,0.0013187528,0.008720797,0.0015369672,-30848.0,-23299.5,-30846.5,
81.146,-2.1289652,1.78565168,9.383052,-0.0037440508,-0.0003389269,-0.0028596632,-30848.0,-23555.5,-30590.5,
81.263,-2.0643218,1.9604282,9.325591,-0.0053428112,0.00059369208,0.0030025114,-30848.0,-23555.5,-30590.5,
81.381,-2.0762928,1.9197268,9.392629,-0.00067971648,-0.0032700152,-0.0016605817,-29824.0,-24579.5,-29566.5,
81.498,-2.1050232,1.9532456,9.351927,-0.0026781856,0.005656477,-0.0003282698,-29824.0,-24067.5,-29822.5,
81.613,-2.078687,1.9532456,9.390234,-0.0010794252,0.0019260049,0.0014037369,-29824.0,-23811.5,-29822.5,
81.736,-1.9924958,1.9245152,9.395022,-0.008940056,0.0053900144,-6.180722e-05,-29312.0,-23043.5,-30078.5,
81.851,-1.8823624,2.1016862,9.380657,-0.008407116,-0.0014047772,-0.0043252064,-29568.0,-22787.5,-30334.5,
81.967,-1.8871508,1.9029674,9.438118,-0.00014679134,-0.003669709,-0.00046150108,-29568.0,-22531.5,-29822.5,
82.084,-2.0379856,1.83114136,9.335168,0.000119671224,-0.0019377023,0.0027360496,-29568.0,-22787.5,-29822.5,
82.205,-2.0978406,1.898179,9.335168,0.0034504532,-0.0022041648,0.0018034298,-29824.0,-22531.5,-28798.5,
82.327,-2.0020726,1.922121,9.3303792,-0.0012126416,0.0053900144,-0.0011276575,-30080.0,-22531.5,-29054.5,
82.444,-2.0595334,1.9053616,9.383052,-0.0057424904,0.0105860344,-0.0013941191,-29824.0,-23299.5,-30078.5,
82.563,-1.9924958,2.0107066,9.411782,-0.0064086468,0.0020592324,0.0016701994,-30080.0,-22787.5,-30078.5,
82.680,-2.006861,1.8790254,9.404599,-0.0058757364,0.0059229432,-0.0043252064,-30336.0,-23043.5,-28798.5,
82.797,-2.0140436,1.9771876,9.385446,0.000919044,0.00059369208,0.0018034298,-30848.0,-22787.5,-29054.5,
82.919,-2.0691102,1.922121,9.406994,-0.0021452606,-0.0012715459,-0.0013941191,-30080.0,-22787.5,-30334.5,
83.036,-2.0882638,1.9029674,9.402205,-0.003344342,0.0021924674,7.142406e-05,-30336.0,-22787.5,-29822.5,
83.152,-1.9685538,1.9508514,9.390234,-0.0022784918,-7.246435e-05,-0.0035258192,-30336.0,-22275.5,-29310.5,
83.269,-1.99489,1.9508514,9.440513,-0.002411738,0.005256787,-0.0019270442,-30080.0,-22531.5,-30078.5,
83.384,-1.9924958,1.9652166,9.378263,-0.008007437,0.004723858,-0.0016605817,-30080.0,-22787.5,-30334.5,
83.507,-2.0092552,1.9173326,9.402205,-0.0073412808,0.0023256988,-0.002726432,-29568.0,-23043.5,-28798.5,
83.624,-2.0236204,1.98437036,9.385446,-0.00774095936,0.0044573956,-0.0036590504,-30336.0,-22531.5,-29822.5,
83.743,-1.9781306,2.0250718,9.38784,-0.007474512,0.0027253888,-0.0013941191,-30592.0,-22531.5,-30078.5,
83.866,-2.090658,1.8479009,9.337562,-0.0032111108,-0.000738620736,0.0012705056,-30080.0,-22531.5,-30590.5,
83.992,-2.1289652,1.8574776,9.37108,-0.0037440508,0.0059229432,-6.180722e-05,-30592.0,-22019.5,-30334.5,
84.109,-1.9853132,1.98915884,9.426147,-0.012670532,0.0008601546,-0.0021935068,-30080.0,-22531.5,-30590.5,
84.225,-2.0044668,1.9676108,9.373475,-0.0062754304,0.004857093,-0.002326738,-30336.0,-22275.5,-29822.5,
84.341,-2.018832,1.934092,9.421359,0.000785827636,0.0008601546,-0.0029928944,-30592.0,-22531.5,-30590.5,
84.457,-1.9589768,1.9652166,9.380657,-0.002811417,0.0008601546,-0.002326738,-30592.0,-22787.5,-31358.5,
84.578,-2.0116494,1.9245152,9.390234,0.00065259636,0.0043241644,0.00286928,-30336.0,-22531.5,-31358.5,
84.694,-2.066716,1.9053616,9.375869,-0.008140668,0.0036580116,-0.0013941191,-30848.0,-21763.5,-31870.5,
84.810,-2.0643218,1.9125442,9.37108,-0.0037440508,-0.000205695632,-0.0025932006,-30080.0,-22019.5,-31870.5,
84.928,-2.1002348,1.898179,9.416571,0.0038501472,0.00072692332,-0.0019270442,-30592.0,-22531.5,-31614.5,
85.044,-2.0571392,1.898179,9.406994,-0.0021452606,0.0029918552,-0.0016605817,-30848.0,-22275.5,-30846.5,
85.167,-2.0978406,1.8790254,9.31362,-0.007474512,0.0032583176,-0.0035258192,-30848.0,-23299.5,-31358.5,
85.283,-1.9853132,1.9412746,9.373475,-0.010272369,0.0027253888,-0.0012608878,-30848.0,-22787.5,-31614.5,
85.400,-1.99489,1.99155316,9.356715,-0.00028002262,-0.0015380084,0.0026028176,-30080.0,-22275.5,-30334.5,
85.517,-1.9517942,1.9005732,9.395022,-0.0053428112,0.0041909368,-0.0021935068,-30336.0,-22787.5,-30590.5,
85.634,-2.0164378,1.9532456,9.366292,0.000919044,0.0041909368,7.142406e-05,-30336.0,-22275.5,-31614.5,
85.755,-2.0284088,1.87663132,9.380657,0.00065259636,0.003924474,0.0035354364,-30592.0,-22531.5,-31102.5,
85.873,-2.0691102,1.8909964,9.3064376,-0.00361080468,0.0011266135,0.0016701994,-30848.0,-22275.5,-30334.5,
85.992,-2.0571392,1.85508352,9.3543216,-0.0060089676,0.0009933859,-0.0003282698,-31104.0,-22275.5,-32126.5,
86.110,-1.9877074,1.9628224,9.383052,-0.010938525,0.00698879,-0.0060572124,-30592.0,-22531.5,-31870.5,
86.226,-1.9924958,1.9484572,9.316014,-0.0004132688,0.00072692332,0.0006043492,-30592.0,-22275.5,-31870.5,
86.348,-2.0882638,1.8838138,9.34235,-0.002411738,0.0020592324,0.0012705056,-30336.0,-22275.5,-29566.5,
86.464,-2.0140436,1.9029674,9.414176,-0.0062754304,0.0057897084,0.000337886632,-30592.0,-22275.5,-29310.5,
86.582,-1.9924958,1.946063,9.392629,-0.0062754304,-0.0022041648,0.00286928,-30336.0,-21763.5,-29054.5,
86.698,-2.0643218,1.9436688,9.332773,-0.0040104984,0.0053900144,-0.001793813,-30592.0,-22019.5,-29054.5,
86.814,-2.066716,1.9005732,9.392629,-0.0049431176,-0.0023373962,-0.001793813,-30592.0,-22275.5,-30334.5,
86.936,-2.0260146,1.87423716,9.397417,-0.00094617908,0.00912049,0.0011372734,-30592.0,-22019.5,-29566.5,
87.053,-2.0284088,1.9125442,9.464455,-0.0045434236,0.003924474,0.0020698932,-30336.0,-22275.5,-29310.5,
87.169,-2.0020726,1.9005732,9.385446,-0.00361080468,0.0016595423,-0.0019270442,-31360.0,-22531.5,-29566.5,
87.287,-1.9781306,1.9747934,9.380657,0.0010522902,0.00019399822,0.0012705056,-30336.0,-21763.5,-29054.5,
87.405,-2.0475624,1.9197268,9.392629,-0.0017455816,0.0049903208,-0.0031261258,-30592.0,-22531.5,-30078.5,
87.527,-2.0762928,1.946063,9.402205,-0.00094617908,0.0025921612,-0.0029928944,-30592.0,-22275.5,-31102.5,
87.644,-1.9589768,1.9556398,9.397417,-0.0073412808,0.0075217187,-0.0001950385,-30592.0,-22019.5,-30334.5,
87.762,-2.0020726,1.9245152,9.363898,-0.00361080468,0.0032583176,-0.0031261258,-30592.0,-22019.5,-30846.5,
87.881,-1.9901016,1.9364862,9.459666,-0.0012126416,-0.00273709,0.000337886632,-30848.0,-22019.5,-29566.5,
87.997,-1.9877074,1.9532456,9.3303792,-0.00774095936,0.0033915452,0.0024695872,-30336.0,-21763.5,-30334.5,
88.122,-2.042774,1.9388804,9.402205,-0.0057424904,0.0021924674,-0.000727963636,-30592.0,-22275.5,-29310.5,
88.240,-1.9589768,1.922121,9.418964,-0.0060089676,0.0025921612,-0.0009944253,-30592.0,-21763.5,-29822.5,
88.356,-1.9924958,1.91015,9.409388,-0.003344342,-0.005534947,0.00073758052,-30336.0,-22019.5,-29566.5,
88.470,-2.0331972,1.8957848,9.366292,-0.0022784918,0.0023256988,-0.0001950385,-30080.0,-21763.5,-29822.5,
88.593,-2.0284088,1.9053616,9.404599,-0.002411738,0.0041909368,0.0016701994,-29824.0,-22019.5,-29310.5,
88.709,-2.0762928,1.9269094,9.430936,-0.0060089676,0.003791239,-0.0020602756,-30592.0,-22787.5,-29310.5,
88.826,-2.0403798,1.9412746,9.2824952,-0.0025449544,0.005256787,-0.0036590504,-30336.0,-22275.5,-30590.5,
88.943,-2.0355914,1.9053616,9.37108,-0.003344342,0.005123552,7.142406e-05,-30592.0,-22275.5,-30078.5,
89.058,-2.0236204,1.9149384,9.380657,-0.0013458729,0.0024589264,-0.0013941191,-30592.0,-22275.5,-29822.5,
89.181,-1.9877074,2.003524,9.332773,-0.0029446482,-0.0028703212,0.0022031236,-30848.0,-22787.5,-31102.5,
89.298,-2.0499566,1.98915884,9.440513,-0.00094617908,-0.0023373962,-0.0013941191,-30592.0,-22019.5,-31358.5,
89.417,-1.925458,1.9388804,9.383052,-0.00014679134,0.0027253888,0.0012705056,-30080.0,-22531.5,-30846.5,
89.534,-1.9398232,1.99873568,9.399811,-1.3560057e-05,0.003924474,-0.0012608878,-29824.0,-22019.5,-31358.5,
89.651,-2.102629,1.85508352,9.373475,-0.0012126416,0.0016595423,-0.002726432,-30336.0,-22019.5,-30078.5,
89.774,-2.1074174,1.9197268,9.363898,-0.007607743,-0.00180447468,-0.0019270442,-30080.0,-21763.5,-28798.5,
89.891,-1.9494,1.9532456,9.406994,-0.00414373,0.0035247804,-0.005124594,-30336.0,-21763.5,-29566.5,
90.006,-1.937429,2.003524,9.421359,-0.00028002262,-0.0014047772,-0.0035258192,-30080.0,-21763.5,-30078.5,
90.122,-2.0715044,1.87663132,9.380657,0.0011855215,-0.000871852064,0.0024695872,-30336.0,-21507.5,-29822.5,
90.242,-2.0020726,1.9508514,9.395022,-0.0057424904,0.0041909368,-0.0012608878,-30592.0,-22019.5,-29566.5,
90.365,-1.9996784,1.9293036,9.402205,-0.008540362,0.004723858,-0.0028596632,-30592.0,-22275.5,-30334.5,
90.481,-1.9470058,1.9628224,9.469243,-0.0029446482,0.0012598485,0.0018034298,-30592.0,-22275.5,-30078.5,
90.599,-1.9158812,2.0370428,9.428541,-0.004809886,0.0012598485,-0.0019270442,-30848.0,-22531.5,-30334.5,
90.716,-2.006861,1.9388804,9.406994,-0.0037440508,0.001526311,0.0012705056,-30336.0,-22019.5,-30846.5,
90.832,-2.0475624,1.9484572,9.356715,-0.00028002262,0.0011266135,0.0012705056,-30592.0,-23043.5,-31102.5,
90.955,-2.0571392,1.9293036,9.335168,-0.00720804936,0.0029918552,-0.0029928944,-30336.0,-22787.5,-30846.5,
91.073,-2.0164378,1.9197268,9.347138,-0.0038772672,0.00072692332,-0.0035258192,-30848.0,-22787.5,-29822.5,
91.190,-2.0331972,1.9029674,9.380657,-0.005609274,-0.0028703212,-0.0001950385,-30336.0,-22787.5,-30078.5,
91.306,-2.0475624,1.9173326,9.361504,-0.007607743,0.006589096,-0.0035258192,-30848.0,-22531.5,-29566.5,
91.421,-2.0691102,1.934092,9.426147,-0.0022784918,0.0025921612,-0.003925513,-30080.0,-23043.5,-30590.5,
91.543,-2.0571392,1.8790254,9.378263,-0.004276961,0.0059229432,-0.00046150108,-30080.0,-22531.5,-29310.5,
91.660,-2.0236204,1.946063,9.349533,-0.0005464852,0.00179276984,-0.006190444,-30592.0,-22531.5,-30078.5,
91.776,-2.0140436,1.98915884,9.380657,-0.00774095936,0.0035247804,0.0015369672,-30080.0,-22531.5,-28542.5,
91.897,-1.9494,1.9245152,9.38784,-0.002811417,0.0028586238,-0.0031261258,-30592.0,-22531.5,-30846.5,
92.012,-1.9661596,1.898179,9.404599,-0.00414373,0.0041909368,-0.0029928944,-30336.0,-22019.5,-31614.5,
92.133,-2.0116494,2.003524,9.327985,-0.0038772672,0.0003272295,0.00047111884,-30336.0,-22787.5,-29566.5,
92.249,-1.9517942,1.9436688,9.347138,-0.00694158636,-0.00273709,-0.001793813,-30336.0,-22275.5,-30334.5,
92.365,-2.0140436,1.946063,9.375869,-0.007607743,0.005256787,-0.0009944253,-30336.0,-22787.5,-30334.5,
92.480,-2.0284088,1.9628224,9.308831,0.00185167792,0.0059229432,-0.001793813,-30080.0,-22531.5,-30334.5,
92.597,-1.9589768,1.9388804,9.344745,-0.002411738,0.00072692332,-0.0003282698,-29824.0,-22787.5,-29822.5,
92.718,-1.9685538,1.9293036,9.368687,-0.0030778944,0.008187875,-0.0024599694,-30336.0,-22275.5,-28798.5,
92.835,-1.970948,1.9197268,9.414176,-0.0054760424,0.0040577016,0.0039351304,-30336.0,-23043.5,-29310.5,
92.951,-2.0140436,1.9532456,9.385446,-0.0021452606,-0.00273709,0.001004043,-30080.0,-22787.5,-29310.5,
93.066,-2.0020726,1.8957848,9.318408,-0.008940056,0.0055232496,-0.00046150108,-30592.0,-22787.5,-29054.5,
93.189,-2.0284088,1.9412746,9.404599,-0.008007437,0.0009933859,-0.0024599694,-30336.0,-22019.5,-30078.5,
93.305,-2.0260146,1.9197268,9.411782,-0.009073272,0.0011266135,-0.0064569064,-30336.0,-22275.5,-29566.5,
93.421,-2.0595334,1.9628224,9.316014,-0.008407116,0.0029918552,-0.0015273513,-30080.0,-22019.5,-29310.5,
93.538,-2.0379856,1.9604282,9.35911,-0.001878798,-0.0026038588,0.0026028176,-30592.0,-22787.5,-30334.5,
93.654,-2.030803,1.9508514,9.395022,-0.006675124,0.00179276984,0.0027360496,-30592.0,-22787.5,-29566.5,
93.777,-1.9805248,1.9269094,9.366292,-0.0060089676,0.0009933859,-0.0011276575,-30592.0,-22531.5,-30334.5,
93.894,-2.0044668,1.9676108,9.411782,-0.0057424904,0.003791239,-0.0013941191,-30848.0,-22787.5,-30078.5,
94.011,-2.0260146,1.9293036,9.416571,-0.0044102072,0.0040577016,0.0026028176,-30336.0,-22787.5,-29566.5,
94.128,-1.9924958,1.9508514,9.347138,-0.0012126416,-0.0011383183,-0.00046150108,-30336.0,-22787.5,-29310.5,
94.246,-1.9924958,1.9197268,9.392629,-0.0038772672,0.005123552,0.00020465534,-30592.0,-22531.5,-28542.5,
94.369,-2.0020726,1.91015,9.356715,-0.0013458729,0.0075217187,-0.0015273513,-30592.0,-22787.5,-30078.5,
94.487,-2.0499566,1.9436688,9.402205,-0.00774095936,0.0045906304,0.0020698932,-30336.0,-22019.5,-29054.5,
94.605,-2.0691102,1.9149384,9.418964,-0.0030778944,-0.000871852064,0.0015369672,-30336.0,-22787.5,-31102.5,
94.723,-2.0212262,1.9747934,9.375869,-0.004276961,0.0068555624,-0.0024599694,-29824.0,-22787.5,-29310.5,
94.840,-2.0140436,1.9412746,9.35911,-0.0060089676,-0.0019377023,-6.180722e-05,-29824.0,-22275.5,-29822.5,
94.970,-1.9637654,1.8838138,9.392629,-0.0022784918,0.004857093,0.0031357436,-30336.0,-23043.5,-30078.5,
95.087,-2.018832,1.9245152,9.368687,-0.003344342,-7.246435e-05,-0.0043252064,-30336.0,-22531.5,-29310.5,
95.202,-1.9972842,1.9149384,9.426147,0.000785827636,0.0029918552,0.0027360496,-30080.0,-22531.5,-28798.5,
95.321,-2.0475624,1.9293036,9.430936,-1.3560057e-05,0.0033915452,-0.001793813,-30592.0,-22275.5,-28542.5,
95.437,-1.9901016,1.9125442,9.368687,-0.0049431176,0.0029918552,-0.0036590504,-29824.0,-22275.5,-29566.5,
95.560,-2.006861,1.9293036,9.363898,-0.008540362,0.0028586238,-0.0040587444,-29824.0,-22275.5,-30078.5,
95.676,-1.9924958,1.8933906,9.368687,-0.0060089676,0.0043241644,0.0039351304,-30592.0,-22275.5,-30334.5,
95.794,-1.99489,1.9316978,9.411782,-0.002811417,-0.0026038588,-0.0021935068,-30336.0,-22019.5,-28798.5,
95.909,-2.0523508,1.886208,9.440513,0.0011855215,0.00179276984,-0.0016605817,-30592.0,-22787.5,-30846.5,
96.027,-2.0595334,1.898179,9.450089,-0.0045434236,0.0029918552,-0.0008611949,-30336.0,-22019.5,-29054.5,
96.149,-2.0403798,1.9197268,9.397417,-0.010538831,0.0041909368,-0.0019270442,-31360.0,-22275.5,-29054.5,
96.266,-1.99489,1.91015,9.399811,-0.008940056,0.00019399822,-0.0003282698,-30592.0,-22531.5,-29566.5,
96.379,-1.9517942,1.9364862,9.366292,-0.002811417,-0.0024706236,-0.00046150108,-30336.0,-22531.5,-30334.5,
96.496,-2.0571392,1.9293036,9.347138,-0.0037440508,0.003791239,-0.0024599694,-30336.0,-22019.5,-30846.5,
96.612,-1.99489,1.9388804,9.409388,-0.0012126416,0.0045906304,0.00073758052,-30336.0,-22275.5,-30590.5,
96.733,-1.9877074,1.8933906,9.380657,-0.0013458729,-0.0028703212,-0.000727963636,-30336.0,-21763.5,-30334.5,
96.852,-2.0523508,1.87663132,9.378263,-0.00720804936,0.00072692332,-0.0016605817,-30592.0,-22019.5,-28798.5,
96.971,-2.0834754,1.9029674,9.349533,-0.0060089676,0.0044573956,-0.0029928944,-30592.0,-22275.5,-30590.5,
97.089,-2.0092552,1.91015,9.337562,-0.00347757336,0.003924474,-0.0011276575,-30080.0,-22531.5,-29054.5,
97.211,-2.0020726,1.9771876,9.402205,-0.0064086468,6.0766936e-05,-0.0036590504,-29824.0,-22531.5,-29310.5,
97.328,-2.0738986,1.934092,9.454878,-0.0053428112,0.0029918552,-0.0016605817,-30336.0,-21763.5,-29566.5,
97.445,-1.9517942,2.0226776,9.380657,-0.0062754304,0.0003272295,-0.0009944253,-30592.0,-22787.5,-29566.5,
97.561,-2.0164378,1.91015,9.351927,-0.0037440508,-0.0022041648,-0.0012608878,-30592.0,-22019.5,-30078.5,
97.677,-1.9565826,1.9173326,9.445301,-0.003344342,0.0024589264,0.0014037369,-30336.0,-22531.5,-29310.5,
97.800,-2.0451682,1.922121,9.404599,-0.0030778944,-0.0028703212,-0.0009944253,-30080.0,-21763.5,-28542.5,
97.916,-2.0499566,1.934092,9.366292,-0.006675124,-0.0030035526,-0.0037922818,-30080.0,-22019.5,-29822.5,
98.034,-1.9781306,1.946063,9.378263,-0.007074803,-0.0014047772,-0.00046150108,-30848.0,-22531.5,-29822.5,
98.150,-2.030803,1.9125442,9.383052,-0.00720804936,0.0059229432,-0.0019270442,-31104.0,-21763.5,-29054.5,
98.267,-2.0044668,1.8838138,9.414176,-0.008007437,0.006589096,-0.00752275664,-30592.0,-22019.5,-29310.5,
98.389,-1.9901016,1.8838138,9.392629,-0.013336688,0.0076549464,-0.007389525,-30592.0,-22019.5,-29822.5,
98.506,-1.8871508,1.9316978,9.409388,-0.002811417,0.0025921612,-0.0028596632,-30336.0,-22531.5,-29822.5,
98.622,-2.1074174,1.9029674,9.356715,-0.0021452606,-0.00313678,0.00047111884,-30336.0,-22531.5,-30846.5,
98.739,-2.102629,1.9029674,9.375869,-0.0025449544,-0.000205695632,0.00073758052,-30592.0,-22275.5,-29054.5,
98.857,-1.9470058,1.922121,9.428541,-0.0016123354,0.0032583176,-0.0021935068,-30336.0,-22019.5,-29822.5,
98.979,-2.0140436,2.0226776,9.327985,-0.0062754304,0.0023256988,-0.0043252064,-30592.0,-22275.5,-29822.5,
99.097,-1.8943334,2.0226776,9.332773,-0.005609274,-0.010730963,0.0011372734,-31104.0,-23299.5,-30590.5,
99.213,-1.970948,1.9412746,9.383052,-0.0016123354,-0.0052684844,-0.0028596632,-30592.0,-22275.5,-29310.5,
99.329,-1.9805248,1.9029674,9.38784,-0.007074803,0.0024589264,-0.0031261258,-30080.0,-22019.5,-29566.5,
99.445,-2.0691102,1.91015,9.361504,-0.0045434236,0.0035247804,-0.000727963636,-30592.0,-22787.5,-29054.5,
99.569,-1.9757364,1.958034,9.339956,-0.013869613,0.007921409,-0.009387994,-30080.0,-22275.5,-29566.5,
99.684,-2.0260146,1.9484572,9.421359,-0.0044102072,0.0012598485,0.0015369672,-30336.0,-21763.5,-29566.5,
99.802,-1.9517942,1.9795818,9.392629,-0.009073272,-0.000738620736,0.00020465534,-30336.0,-21763.5,-29822.5,
99.920,-1.9565826,1.946063,9.366292,-0.0026781856,-0.0014047772,0.0014037369,-30336.0,-22787.5,-30590.5,
100.037,-1.982919,1.9029674,9.3543216,0.000919044,-0.0028703212,0.004734517,-30848.0,-22787.5,-29310.5,
100.158,-2.0379856,1.9388804,9.38784,-0.0030778944,0.0021924674,0.0006043492,-30080.0,-22019.5,-28798.5,
100.275,-2.0140436,1.9125442,9.332773,-0.0021452606,-0.0026038588,-0.0001950385,-30592.0,-22275.5,-30078.5,
100.392,-2.0284088,1.9125442,9.385446,-0.008806825,0.005656477,-0.005524288,-30592.0,-22275.5,-29566.5,
100.507,-1.9805248,1.946063,9.356715,-0.0037440508,0.005123552,0.0012705056,-29824.0,-22275.5,-30334.5,
100.622,-1.9613712,1.9412746,9.390234,-0.0010794252,-0.0043358652,-0.0020602756,-30592.0,-23043.5,-30078.5,
100.744,-2.018832,1.9556398,9.375869,-0.006675124,0.0064558648,-0.0025932006,-30336.0,-22531.5,-29822.5,
100.861,-1.9853132,1.9628224,9.421359,-0.0057424904,0.0011266135,-0.0028596632,-31104.0,-22275.5,-29310.5,
100.978,-2.0331972,1.9245152,9.34235,-0.002411738,0.00179276984,0.0006043492,-31104.0,-23299.5,-30078.5,
101.094,-2.0140436,1.8886022,9.349533,-0.0029446482,0.003791239,-0.0016605817,-30848.0,-23299.5,-29566.5,
101.217,-1.9972842,1.9077558,9.3064376,-0.00067971648,0.0009933859,-0.0019270442,-31104.0,-23555.5,-29310.5,
101.335,-2.0236204,1.9556398,9.356715,-0.00347757336,0.006056171,0.001004043,-30592.0,-23555.5,-29566.5,
101.453,-2.018832,2.015495,9.3543216,-1.3560057e-05,-0.005401712,0.0018034298,-31104.0,-23555.5,-29310.5,
101.569,-2.1648782,1.9077558,9.378263,-0.009606212,0.0029918552,-0.003259357,-30848.0,-23299.5,-29054.5,
101.685,-1.9877074,1.98437036,9.514732,-0.014402524,0.006189406,-0.00698983136,-30592.0,-23555.5,-30590.5,
101.810,-1.8584204,1.958034,9.430936,-0.007874206,0.009786647,-0.0024599694,-30848.0,-23299.5,-29822.5,
101.925,-2.0379856,1.9149384,9.373475,-0.002811417,-0.0019377023,0.0015369672,-30080.0,-22275.5,-30334.5,
102.043,-2.1050232,1.9795818,9.320803,-0.0021452606,-0.0022041648,-0.0020602756,-30592.0,-22787.5,-30846.5,
102.161,-2.018832,1.970005,9.363898,-0.0058757364,-0.000871852064,-0.003259357,-30592.0,-23299.5,-29822.5,
102.277,-2.0020726,1.9173326,9.399811,-0.0045434236,0.008454334,-0.0011276575,-30848.0,-23555.5,-30334.5,
102.400,-2.0260146,2.003524,9.327985,-0.0060089676,-0.0034032464,-0.002326738,-30336.0,-22531.5,-29310.5,
102.516,-1.9924958,1.9149384,9.438118,-0.00347757336,0.0009933859,0.003268974,-30336.0,-22787.5,-28798.5,
102.633,-1.970948,1.9293036,9.323196,-0.00361080468,0.003924474,-0.0003282698,-30080.0,-22531.5,-30078.5,
102.749,-2.0212262,1.9508514,9.337562,-0.00067971648,0.0020592324,-0.0025932006,-30592.0,-22787.5,-30334.5,
102.867,-1.9733422,1.99634136,9.395022,-0.0092065184,0.0036580116,-0.0037922818,-30592.0,-22275.5,-29054.5,
102.993,-1.9996784,1.9364862,9.378263,-0.0022784918,-0.0003389269,0.0024695872,-30592.0,-22275.5,-29822.5,
103.110,-2.030803,1.9723992,9.363898,-0.00720804936,0.0064558648,-0.0049913632,-30592.0,-23043.5,-30590.5,
103.227,-2.0355914,1.9532456,9.404599,-0.0050763636,-0.0006053895,-0.0005947314,-30336.0,-22787.5,-29054.5,
103.344,-2.1122058,1.9245152,9.349533,-0.0017455816,0.0031250828,0.002336355,-30848.0,-23043.5,-30078.5,
103.460,-1.9924958,1.9077558,9.411782,0.0011855215,0.005256787,-0.0016605817,-30848.0,-23043.5,-29566.5,
103.584,-2.0236204,1.886208,9.361504,-0.00414373,0.0008601546,0.001004043,-31104.0,-22787.5,-29566.5,
103.698,-2.0116494,1.9652166,9.442906,-0.0060089676,0.0033915452,-0.0019270442,-30848.0,-23299.5,-28030.5,
103.815,-2.006861,1.9197268,9.356715,-0.0022784918,0.0043241644,-0.0015273513,-30336.0,-22787.5,-30334.5,
103.932,-1.9996784,1.8790254,9.366292,-0.0082739,-0.0004721582,-0.0029928944,-31104.0,-22787.5,-29822.5,
104.048,-1.9924958,1.934092,9.37108,-0.0050763636,-0.0052684844,-0.0003282698,-30592.0,-23299.5,-30334.5,
104.169,-2.0475624,1.898179,9.339956,-0.0049431176,0.001526311,0.0015369672,-31104.0,-23043.5,-30334.5,
104.284,-2.042774,1.87423716,9.34235,-0.00694158636,0.0043241644,-0.0015273513,-31104.0,-23043.5,-30590.5,
104.402,-2.0260146,1.98676468,9.375869,-0.010405585,0.004723858,-0.0052578252,-30336.0,-23043.5,-30334.5,
104.520,-1.9661596,1.9077558,9.380657,-0.0020120292,0.0008601546,-0.000727963636,-30336.0,-23555.5,-29822.5,
104.643,-2.054745,1.9125442,9.411782,-0.0030778944,0.00019399822,0.001004043,-30336.0,-22787.5,-29566.5,
104.760,-1.9901016,1.86226608,9.385446,-0.0026781856,0.00698879,-0.0020602756,-30336.0,-23555.5,-30334.5,
104.877,-2.3228956,1.76649808,9.452483,-0.01760009,0.0053900144,-0.0013941191,-30336.0,-23555.5,-29822.5,
104.995,-2.0978406,1.73776768,9.488397,-0.011871144,-0.0015380084,-0.0028596632,-27776.0,-21763.5,-28542.5,
105.113,-1.8727856,1.99873568,9.320803,-0.00347757336,0.0053900144,0.001004043,-29056.0,-18179.5,-28286.5,
105.238,-2.054745,1.9125442,9.35911,-0.001878798,0.000460457068,-0.0020602756,-32128.0,-18179.5,-30078.5,
105.354,-1.9637654,2.0322544,9.316014,0.000919044,0.005256787,-0.0005947314,-32384.0,-20227.5,-29566.5,
105.469,-2.042774,1.8957848,9.335168,-0.0044102072,-0.0016712397,-0.0040587444,-32384.0,-21763.5,-30590.5,
105.586,-2.0738986,1.8957848,9.445301,-0.010938525,0.0025921612,-0.0008611949,-31872.0,-22787.5,-30078.5,
105.703,-1.9446116,1.9197268,9.351927,-0.010405585,0.0023256988,-0.0040587444,-30336.0,-23043.5,-28798.5,
105.826,-2.0236204,1.85029508,9.380657,-0.0049431176,0.0023256988,-0.001793813,-29312.0,-22787.5,-29310.5,
105.944,-2.0260146,1.9269094,9.351927,-0.0040104984,6.0766936e-05,0.0006043492,-29568.0,-22275.5,-28798.5,
106.068,-2.0260146,1.9293036,9.397417,-0.0029446482,0.006589096,-0.003259357,-29312.0,-22531.5,-29310.5,
106.184,-1.9805248,1.958034,9.373475,-0.00361080468,0.0033915452,-0.0065901376,-29056.0,-23811.5,-28798.5,
106.301,-1.9805248,1.9676108,9.421359,-0.0020120292,-0.0034032464,-0.0003282698,-29568.0,-23043.5,-29822.5,
106.424,-2.0140436,1.9316978,9.435724,-0.0014791042,-0.000205695632,0.00193666116,-29568.0,-23043.5,-29054.5,
106.544,-1.9901016,1.9125442,9.397417,-0.008407116,0.0029918552,-0.003259357,-30080.0,-23299.5,-29310.5,
106.660,-1.9733422,1.98437036,9.325591,-0.010405585,0.005656477,-0.0036590504,-29568.0,-22787.5,-29310.5,
106.778,-2.0092552,1.934092,9.3543216,-0.002811417,-0.0052684844,0.00020465534,-29824.0,-23043.5,-29054.5,
106.895,-2.0044668,1.9484572,9.37108,-0.006541893,-0.0032700152,-0.0009944253,-29568.0,-23555.5,-29566.5,
107.016,-2.0834754,1.934092,9.366292,-0.004809886,-0.0039361716,0.003268974,-29568.0,-22787.5,-28542.5,
107.131,-2.0355914,1.9508514,9.332773,-0.005609274,0.0059229432,-0.0035258192,-29568.0,-23299.5,-29310.5,
107.247,-2.0260146,1.9293036,9.435724,-0.0062754304,0.0043241644,-0.0053910568,-29312.0,-22787.5,-29822.5,
107.364,-2.006861,1.99155316,9.390234,-0.0101391376,0.0041909368,-0.0060572124,-29824.0,-23043.5,-29822.5,
107.488,-1.9805248,1.9795818,9.368687,-0.0030778944,-0.0023373962,-0.0021935068,-29824.0,-23555.5,-29310.5,
107.605,-2.0643218,1.87423716,9.37108,0.00065259636,0.0008601546,-0.002326738,-30336.0,-22531.5,-28542.5,
107.722,-2.0499566,1.9125442,9.378263,-0.0045434236,0.0049903208,-0.0031261258,-29824.0,-23043.5,-28798.5,
107.839,-2.066716,1.9388804,9.406994,-0.0092065184,-0.00273709,-0.0021935068,-29824.0,-23555.5,-30078.5,
107.953,-2.0475624,1.886208,9.426147,-0.008806825,0.006589096,-0.0011276575,-29568.0,-23299.5,-29822.5,
108.075,-2.1361478,1.8574776,9.366292,-0.0016123354,0.0011266135,0.00020465534,-29312.0,-22531.5,-28542.5,
108.195,-1.9278522,1.934092,9.35911,0.0045163036,-0.0030035526,-0.0020602756,-29312.0,-21251.5,-28542.5,
108.311,-2.0595334,1.9412746,9.318408,0.001451984,0.008587565,-0.0012608878,-30336.0,-19971.5,-28542.5,
108.427,-1.9853132,1.99873568,9.308831,0.0027842968,-0.0028703212,0.0020698932,-32128.0,-18691.5,-28798.5,
108.545,-2.0284088,1.9388804,9.428541,-0.00361080468,-0.0006053895,-0.0021935068,32640.0,-19203.5,-29054.5,
108.669,-2.078687,1.9484572,9.363898,-0.0032111108,0.0041909368,-0.0028596632,31360.0,-18435.5,-29310.5,
108.785,-2.0092552,1.9125442,9.351927,-0.00520958,0.0012598485,-0.0005947314,31104.0,-19203.5,-31358.5,
108.901,-1.99489,1.9005732,9.392629,-0.0010794252,-0.010331269,0.0012705056,31360.0,-18947.5,-29566.5,
109.017,-1.9494,1.9149384,9.450089,-0.0037440508,0.00072692332,-0.0029928944,32640.0,-18947.5,-27774.5,
109.133,-2.030803,1.91015,9.457272,-0.004276961,0.0035247804,0.0012705056,-31360.0,-19715.5,-28798.5,
109.255,-2.0619276,1.98676468,9.380657,-0.008806825,0.0020592324,-0.004191975,-30848.0,-19971.5,-29566.5,
109.372,-1.9972842,1.98197632,9.409388,-0.006675124,0.000460457068,0.000337886632,-31360.0,-20227.5,-28542.5,
109.492,-2.0691102,1.8886022,9.3543216,-0.0032111108,0.0057897084,0.0018034298,-31104.0,-20227.5,-28542.5,
109.610,-2.0715044,1.970005,9.356715,-0.00694158636,0.0035247804,-0.002726432,-31104.0,-19459.5,-28542.5,
109.728,-2.1169942,1.9197268,9.380657,-0.0029446482,-0.0023373962,0.0016701994,-30848.0,-19715.5,-29054.5,
109.852,-1.9230638,1.9628224,9.373475,-0.01147145,0.008720797,-0.00698983136,-30848.0,-19715.5,-29310.5,
109.969,-2.0882638,2.0466196,9.289678,-0.0004132688,0.009386953,-0.0005947314,-31360.0,-20483.5,-29566.5,
110.085,-2.1050232,2.0945036,9.3543216,0.0013187528,-7.246435e-05,0.0018034298,-30592.0,-20739.5,-29566.5,
110.202,-2.1529072,1.79522852,9.378263,-0.0037440508,-0.0059346408,-0.0005947314,-31104.0,-20483.5,-28286.5,
110.320,-2.006861,1.87663132,9.363898,-0.008007437,0.0096534152,-0.0049913632,-30848.0,-20227.5,-28798.5,
110.458,-1.9733422,1.9508514,9.383052,-0.00520958,0.00179276984,-0.0065901376,-31360.0,-19971.5,-28798.5,
110.576,-1.9230638,2.0083124,9.375869,-0.007074803,-0.0035364776,-0.0015273513,-31104.0,-20227.5,-29566.5,
110.693,-1.9877074,1.83353568,9.442906,-0.0050763636,-0.000738620736,0.00020465534,-31360.0,-19715.5,-28798.5,
110.813,-1.8919392,1.9508514,9.368687,-0.00720804936,0.006589096,-0.002326738,-31104.0,-20227.5,-29054.5,
110.936,-2.006861,1.9197268,9.392629,-0.00081294776,-0.0012715459,-0.0001950385,-31360.0,-19971.5,-29054.5,
111.052,-2.018832,1.8886022,9.347138,-0.00067971648,-0.0011383183,0.0012705056,-31104.0,-19715.5,-29566.5,
111.169,-2.0236204,1.87184284,9.34235,-0.0022784918,-0.00380293668,0.00020465534,-30848.0,-20483.5,-29310.5,
111.289,-1.9877074,1.9269094,9.390234,-0.0068083555,0.0036580116,-0.0052578252,-31104.0,-20227.5,-30334.5,
111.408,-1.9589768,1.8886022,9.447695,-0.0044102072,0.0057897084,-0.0021935068,-30592.0,-19459.5,-28542.5,
111.530,-2.0020726,1.98915884,9.356715,-0.007474512,0.0049903208,-0.000727963636,-30592.0,-19459.5,-28798.5,
111.648,-1.9589768,1.9795818,9.409388,-0.0053428112,0.0019260049,-0.0003282698,-31104.0,-19203.5,-28542.5,
111.767,-1.9661596,1.9269094,9.392629,-0.00520958,-0.0003389269,-0.0005947314,-31360.0,-19203.5,-28798.5,
111.882,-2.030803,1.85268932,9.31362,-0.00720804936,0.0003272295,-0.0037922818,-30592.0,-18947.5,-28798.5,
112.001,-1.889545,2.0178892,9.337562,-0.00774095936,0.0036580116,-0.0008611949,-30848.0,-19459.5,-29310.5,
112.124,-1.877574,1.9628224,9.373475,-0.009606212,0.0049903208,-0.0052578252,-31104.0,-19203.5,-28798.5,
112.239,-1.9158812,2.0059182,9.383052,-0.002811417,0.003791239,0.00047111884,-30848.0,-19203.5,-28030.5,
112.356,-1.9613712,1.9484572,9.363898,-0.0032111108,0.00019399822,0.0015369672,-31104.0,-18947.5,-28798.5,
112.474,-2.0116494,1.9125442,9.402205,-0.0013458729,0.0008601546,0.00073758052,-30080.0,-19459.5,-28286.5,
112.591,-2.0810812,2.0298602,9.397417,-0.010538831,0.0008601546,-0.0047249004,-30848.0,-18947.5,-30078.5,
112.714,-1.9302464,1.86466032,9.454878,-0.00774095936,0.005656477,-0.008855069,-31872.0,-19203.5,-30334.5,
112.832,-1.9901016,1.9316978,9.335168,-0.008806825,0.009919878,-0.00792245,32384.0,-18179.5,-29310.5,
112.947,-2.0523508,2.0657732,9.327985,-0.00361080468,0.00019399822,-0.0016605817,-30848.0,-18691.5,-29566.5,
113.065,-2.0164378,1.81438216,9.454878,-0.0045434236,0.0027253888,0.0011372734,-30336.0,-19715.5,-29822.5,
113.184,-2.2247334,1.81438216,9.311226,0.0045163036,-0.004469093,-0.0016605817,-32128.0,-18435.5,-28798.5,
113.308,-1.9637654,1.886208,9.375869,-0.007474512,-0.0015380084,-0.00046150108,29824.0,-19459.5,-31358.5,
113.424,-2.0499566,1.9125442,9.363898,0.0025178344,-0.00180447468,0.0044680556,31104.0,-18947.5,-30334.5,
113.543,-2.0499566,1.91015,9.404599,-0.00520958,0.0021924674,0.0020698932,-32128.0,-18691.5,-29054.5,
113.658,-2.006861,2.0107066,9.363898,0.0010522902,0.0041909368,0.004334824,-29824.0,-22531.5,-29822.5,
113.780,-2.0403798,1.922121,9.395022,-0.00081294776,-0.0011383183,0.005267442,-29312.0,-24323.5,-29054.5,
113.896,-1.99489,1.86944868,9.347138,-0.00774095936,0.003791239,-0.004191975,-29568.0,-23811.5,-29054.5,
114.012,-2.090658,1.85987184,9.344745,-0.0073412808,-0.0004721582,7.142406e-05,-29056.0,-24579.5,-29566.5,
114.129,-1.9494,1.9939473,9.385446,-0.00081294776,0.0021924674,-6.180722e-05,-29312.0,-24323.5,-29054.5,
114.246,-1.9996784,1.946063,9.406994,-0.0049431176,-0.0004721582,0.001004043,-29824.0,-24835.5,-29566.5,
114.367,-1.9972842,1.9747934,9.399811,-0.004276961,0.008187875,0.00073758052,-29824.0,-24579.5,-30078.5,
114.484,-1.9398232,1.9795818,9.406994,-0.0050763636,0.0023256988,-0.0013941191,-29312.0,-23811.5,-30078.5,
114.601,-2.030803,1.9771876,9.392629,0.0027842968,0.00179276984,0.0020698932,-29312.0,-24323.5,-29566.5,
114.718,-2.0212262,1.922121,9.426147,-0.0032111108,0.0053900144,0.0030025114,-29312.0,-24067.5,-29054.5,
114.836,-2.0451682,1.9029674,9.397417,-0.006541893,0.0032583176,0.00087081176,-29824.0,-23811.5,-31358.5,
114.958,-2.0044668,1.8790254,9.347138,-0.006142199,0.0044573956,-0.0005947314,-29312.0,-23299.5,-30590.5,
115.074,-1.9086986,1.9795818,9.404599,-0.00694158636,0.0003272295,-0.0008611949,-29312.0,-23555.5,-29566.5,
115.191,-2.0331972,1.9604282,9.406994,-0.00361080468,0.0044573956,-0.002326738,-29312.0,-24323.5,-29310.5,
115.309,-2.0260146,1.946063,9.390234,-0.0058757364,-0.00380293668,-0.001793813,-29568.0,-24067.5,-30078.5,
115.426,-1.9972842,1.98676468,9.347138,-0.00347757336,0.004723858,-0.0024599694,-29312.0,-23811.5,-29566.5,
115.551,-2.0212262,1.8838138,9.363898,-0.0026781856,0.0032583176,0.000337886632,-29568.0,-24067.5,-29822.5,
115.670,-2.0834754,1.87423716,9.397417,-0.0037440508,0.0011266135,0.0006043492,-29568.0,-24067.5,-30590.5,
115.788,-1.9805248,1.9795818,9.418964,-0.0064086468,0.0045906304,-0.0040587444,-29824.0,-23555.5,-30590.5,
115.905,-2.0619276,2.015495,9.356715,0.0031839908,0.00179276984,0.0006043492,-29056.0,-23555.5,-30078.5,
116.022,-2.030803,1.9771876,9.3303792,-0.0032111108,-0.000871852064,-0.0043252064,-29568.0,-24067.5,-30334.5,
116.146,-1.865603,1.922121,9.409388,-0.01147145,0.0076549464,-0.0049913632,-29568.0,-23811.5,-28798.5,
116.261,-1.9589768,1.9412746,9.380657,-1.3560057e-05,0.00019399822,0.0016701994,-29568.0,-23811.5,-29566.5,
116.379,-2.0092552,1.8838138,9.368687,0.0010522902,0.0024589264,0.0026028176,-29312.0,-23811.5,-29566.5,
116.497,-2.0451682,1.9197268,9.337562,0.0005193651,-0.0024706236,-0.0015273513,-29312.0,-23811.5,-29310.5,
116.620,-1.982919,1.9029674,9.351927,-0.0040104984,0.0045906304,-0.009787688,-29312.0,-23555.5,-28798.5,
116.736,-2.0619276,1.9388804,9.380657,-0.00028002262,-0.0019377023,-0.0019270442,-29568.0,-23555.5,-29822.5,
116.855,-2.0355914,1.8933906,9.368687,-0.010405585,-0.0012715459,-0.0024599694,-29568.0,-22787.5,-29310.5,
116.980,-1.9422174,1.9173326,9.43333,-0.0037440508,0.0057897084,-0.002326738,-29312.0,-23555.5,-29310.5,
117.096,-1.9517942,1.9604282,9.327985,-0.00720804936,0.006589096,-0.00046150108,-29312.0,-23555.5,-28798.5,
117.220,-1.9972842,1.84311252,9.390234,-0.0057424904,0.0003272295,-0.0031261258,-29568.0,-23043.5,-28798.5,
117.338,-2.0212262,1.958034,9.430936,-0.00933975,0.0076549464,0.0012705056,-29568.0,-23299.5,-29566.5,
117.453,-1.99489,2.0202834,9.404599,-0.00933975,0.0043241644,-0.003259357,-29056.0,-23043.5,-29822.5,
117.568,-2.0020726,2.015495,9.411782,-0.0050763636,0.0027253888,0.001004043,-29056.0,-23299.5,-29566.5,
117.684,-1.9398232,1.98437036,9.356715,-0.004276961,0.0016595423,0.0030025114,-29312.0,-23043.5,-29822.5,
117.808,-2.0236204,1.9077558,9.35911,-0.0038772672,0.0031250828,-0.0049913632,-29312.0,-23299.5,-29310.5,
117.925,-2.1169942,1.8287473,9.351927,-0.00520958,0.0003272295,-0.00339258784,-29312.0,-23299.5,-29822.5,
118.043,-1.9805248,1.9245152,9.373475,-0.006142199,0.009253722,-0.007123063,-28544.0,-23299.5,-28286.5,
118.158,-1.9350348,2.0538022,9.414176,0.0019849092,0.0023256988,0.00087081176,-29056.0,-23299.5,-29310.5,
118.275,-2.0331972,1.9077558,9.368687,-0.00361080468,0.0009933859,0.0054006736,-29056.0,-23299.5,-29822.5,
118.399,-2.0403798,1.8479009,9.402205,-0.008540362,-0.0071337184,0.005533905,-29312.0,-23811.5,-29054.5,
118.516,-1.970948,1.9604282,9.426147,-0.00774095936,0.0043241644,-0.0011276575,-29312.0,-23043.5,-29310.5,
118.634,-2.0379856,1.9628224,9.361504,-0.005609274,0.001526311,-0.0047249004,-29312.0,-22019.5,-28798.5,
118.750,-2.0331972,1.9508514,9.395022,-0.0058757364,0.0011266135,0.00020465534,-29056.0,-22019.5,-28798.5,
118.868,-0.59667608,2.0370428,9.476425,0.020370812,0.011252191,0.002336355,-27776.0,-19715.5,-28542.5,
118.990,-2.3133188,1.6587589,9.344745,0.0058486164,0.013517121,-0.0011276575,-32128.0,-18435.5,-29054.5,
119.108,-2.0882638,2.0657732,9.378263,-0.0044102072,0.010985728,-0.0011276575,-28800.0,-21507.5,-29054.5,
119.225,-2.0044668,2.0370428,9.275312,-0.0037440508,0.013916817,-0.0048581316,-29312.0,-17411.5,-28798.5,
119.342,-1.9685538,2.1399934,9.378263,0.0005193651,0.005656477,-0.0047249004,-32128.0,-18691.5,-28798.5,
119.459,-2.006861,2.0945036,9.356715,0.0002528876,0.0043241644,-0.003925513,-30336.0,-22531.5,-29566.5,
119.580,-1.9086986,2.0131008,9.375869,0.0013187528,-0.00766664368,0.004601286,-27520.0,-20227.5,-29054.5,
119.698,-2.0834754,1.77368068,9.392629,-0.0029446482,-0.0026038588,0.0015369672,-29568.0,-17155.5,-28030.5,
119.817,-2.0212262,1.9484572,9.356715,-0.011737898,0.009786647,-0.0036590504,-31616.0,-17667.5,-29310.5,
119.934,-2.0331972,1.9005732,9.356715,-0.00520958,-0.005002022,-0.0043252064,-31360.0,-20739.5,-30078.5,
120.049,-2.0092552,1.9269094,9.38784,-0.009739429,0.007122021,-0.0009944253,-29568.0,-21763.5,-29822.5,
120.171,-2.090658,1.9316978,9.318408,-0.00720804936,0.009386953,-0.0031261258,-28544.0,-20995.5,-29566.5,
120.288,-2.2031854,1.9676108,9.43333,-0.0062754304,-0.0026038588,-0.0016605817,-27776.0,-18691.5,-29054.5,
120.405,-2.0834754,1.98915884,9.34235,-0.0053428112,-0.000871852064,-0.0013941191,-29056.0,-17667.5,-29566.5,
120.524,-2.0212262,1.87184284,9.337562,-0.0021452606,-0.0003389269,-0.00046150108,-31104.0,-16643.5,-29054.5,
120.648,-1.9350348,1.9053616,9.421359,-0.00081294776,0.0023256988,0.0039351304,-32128.0,-18179.5,-30078.5,
120.766,-1.9877074,2.039437,9.323196,-0.0057424904,-7.246435e-05,-0.0021935068,32384.0,-19203.5,-30334.5,
120.882,-2.0236204,1.9795818,9.344745,0.0021181404,-0.0047355556,-0.0003282698,32640.0,-20483.5,-31358.5,
120.999,-1.9517942,1.958034,9.392629,-0.00014679134,-0.004469093,0.003268974,-31360.0,-20739.5,-30846.5,
121.115,-2.0691102,1.91015,9.399811,-0.0020120292,-0.0011383183,0.00047111884,-29312.0,-22275.5,-29822.5,
121.237,-2.0499566,1.8790254,9.3543216,-0.00933975,0.00179276984,0.001004043,-28800.0,-22531.5,-30590.5,
121.354,-1.9398232,2.0370428,9.411782,0.0002528876,0.0031250828,-0.0024599694,-28800.0,-22019.5,-29310.5,
121.471,-1.982919,1.9795818,9.339956,-0.00094617908,-0.0016712397,0.0024695872,-27520.0,-21507.5,-29310.5,
121.588,-2.054745,2.0681674,9.366292,-0.0010794252,0.0012598485,-0.0037922818,-27264.0,-20227.5,-29310.5,
121.706,-2.0762928,2.0370428,9.418964,-0.009472981,-0.00180447468,-0.000727963636,-28800.0,-17923.5,-29310.5,
121.830,-1.9733422,1.9197268,9.423753,-0.001878798,0.0003272295,-0.0005947314,-29824.0,-16899.5,-29566.5,
121.945,-2.0355914,1.800017,9.373475,-0.00094617908,0.0068555624,-0.0053910568,-31872.0,-17923.5,-28542.5,
122.064,-2.0140436,1.9149384,9.399811,-0.0073412808,0.00179276984,-0.0024599694,-32640.0,-20227.5,-29822.5,
122.183,-1.937429,1.922121,9.404599,-0.0030778944,0.0020592324,-0.002726432,-31104.0,-21763.5,-30334.5,
122.298,-2.0379856,1.958034,9.339956,-0.001878798,0.00179276984,0.0006043492,-29312.0,-21763.5,-30078.5,
122.420,-2.0260146,1.9412746,9.347138,-0.009872675,-0.0022041648,-0.0009944253,-27520.0,-21763.5,-29310.5,
122.536,-1.9996784,1.9125442,9.380657,-0.009606212,-0.0004721582,-0.0009944253,-27520.0,-20227.5,-29054.5,
122.652,-1.982919,1.9676108,9.409388,-0.0057424904,0.0016595423,-0.003259357,-27264.0,-18435.5,-28542.5,
122.768,-1.9589768,1.9364862,9.375869,-0.0040104984,0.006189406,-0.00685660036,-28544.0,-17155.5,-28798.5,
122.885,-1.9565826,1.9604282,9.375869,-0.006142199,-7.246435e-05,-0.0037922818,-30080.0,-16643.5,-29054.5,
123.009,-1.9517942,2.0107066,9.411782,-0.0073412808,-0.0019377023,0.0006043492,-30336.0,-17155.5,-28798.5,
123.127,-1.9637654,1.9436688,9.3303792,-0.0029446482,-0.00313678,0.0016701994,-31616.0,-17667.5,-29566.5,
123.245,-2.0475624,1.9029674,9.332773,-0.0029446482,0.0013930798,0.0006043492,-32128.0,-18179.5,-28798.5,
123.362,-1.9924958,1.9316978,9.366292,-0.008673593,0.0059229432,-0.0045916692,-31616.0,-19203.5,-30590.5,
123.484,-2.018832,1.8574776,9.383052,-0.001878798,0.0036580116,-0.000727963636,-31104.0,-19459.5,-29054.5,
123.603,-1.9924958,1.9436688,9.361504,-0.0057424904,0.0031250828,-0.0015273513,-31360.0,-20483.5,-30334.5,
123.720,-2.0595334,1.87663132,9.373475,0.0026510656,0.0013930798,0.0011372734,-30336.0,-20739.5,-29054.5,
123.840,-2.0882638,1.87423716,9.38784,-0.0049431176,0.001526311,-0.0025932006,-29824.0,-22019.5,-29054.5,
123.957,-2.1433304,1.86226608,9.363898,-0.007607743,0.0035247804,-0.0008611949,-28800.0,-23043.5,-29310.5,
124.082,-1.9086986,2.0370428,9.395022,-0.008007437,-0.000738620736,-0.0029928944,-27776.0,-23299.5,-29822.5,
124.200,-2.0164378,1.8790254,9.327985,-0.010805294,0.0012598485,-0.0045916692,-27776.0,-23299.5,-28798.5,
124.318,-1.9781306,1.9723992,9.378263,-0.0012126416,-0.0003389269,-6.180722e-05,-27776.0,-24579.5,-28798.5,
124.434,-2.0092552,1.9125442,9.335168,-0.00081294776,-0.000205695632,-0.0013941191,-28544.0,-24067.5,-30334.5,
124.553,-2.0715044,1.8909964,9.332773,-0.007074803,-0.0048687904,7.142406e-05,-29312.0,-23555.5,-30078.5,
124.675,-2.0691102,1.9412746,9.402205,-0.00081294776,-0.0034032464,0.00020465534,-29824.0,-24067.5,-30078.5,
124.794,-2.0331972,1.8814196,9.373475,-0.0013458729,0.004723858,-0.0035258192,-30848.0,-23299.5,-30078.5,
124.911,-2.0379856,1.9364862,9.411782,-0.004809886,-0.0022041648,-0.0025932006,-31104.0,-22275.5,-30078.5,
125.027,-2.0020726,1.9053616,9.411782,-0.0021452606,-0.00273709,-0.00046150108,-30848.0,-21763.5,-29566.5,
125.143,-2.0882638,1.87423716,9.416571,-0.0014791042,0.0016595423,-0.00046150108,-30592.0,-20739.5,-28798.5,
125.268,-1.937429,1.9532456,9.347138,-0.008806825,-7.246435e-05,-0.0028596632,-30848.0,-21251.5,-29054.5,
125.383,-1.9733422,1.946063,9.411782,-0.0049431176,0.003924474,-0.0047249004,-29824.0,-20995.5,-28286.5,
125.499,-1.9924958,1.922121,9.397417,-0.00094617908,-0.0014047772,-0.0001950385,-29568.0,-21507.5,-28798.5,
125.615,-2.0738986,1.86466032,9.34235,-0.0062754304,-0.0019377023,-0.0036590504,-30080.0,-21507.5,-28798.5,
125.735,-1.9924958,1.946063,9.361504,-0.0040104984,0.00179276984,0.00366866784,-29568.0,-21507.5,-28542.5,
125.859,-2.0978406,1.9795818,9.301649,-0.0054760424,-0.0070004872,0.00020465534,-29824.0,-21507.5,-29310.5,
125.977,-1.877574,1.9173326,9.411782,-0.01613453,-0.0003389269,-0.0065901376,-30080.0,-21763.5,-29310.5,
126.092,-1.9158812,1.78804592,9.447695,-0.001878798,0.0075217187,-0.0001950385,-28800.0,-21251.5,-29054.5,
126.211,-2.1433304,2.0370428,9.361504,-0.0058757364,-0.006600797,0.0020698932,-28800.0,-21763.5,-29054.5,
126.333,-1.9565826,1.81438216,9.390234,-0.009073272,-0.00313678,0.0016701994,-28544.0,-21251.5,-28542.5,
126.450,-1.8560262,2.0298602,9.383052,-0.018932402,0.0035247804,-0.0113864624,-28032.0,-20995.5,-28030.5,
126.570,-1.8823624,2.1375992,9.406994,0.01144433,-0.013262358,0.010196998,-28032.0,-20483.5,-28030.5,
126.686,-2.0212262,1.4911649,9.502762,0.017706186,0.0011266135,0.006599755,-28544.0,-20995.5,-28798.5,
126.804,-1.7842002,1.9676108,9.392629,-0.027858884,0.023243002,-0.020579418,-28800.0,-20995.5,-29054.5,
126.927,-2.1720608,1.8287473,9.426147,-0.00081294776,0.0009933859,0.0039351304,-28288.0,-20483.5,-28542.5,
127.045,-1.9972842,1.886208,9.316014,-0.0030778944,-0.0034032464,-0.0001950385,-28032.0,-20995.5,-28286.5,
127.162,-2.243887,1.72340232,9.402205,-0.0062754304,0.009386953,-0.0043252064,-27776.0,-19971.5,-28286.5,
127.279,-1.99489,2.1663298,9.38784,0.0022513718,-0.009798348,0.0006043492,-28288.0,-20227.5,-28030.5,
127.393,-2.1768492,1.7210081,9.280101,0.01197724,-0.010730963,0.008598224,-27520.0,-20483.5,-28798.5,
127.516,-2.0882638,1.74016184,9.34235,-0.014669001,0.012850966,-0.009654457,-27264.0,-19971.5,-27262.5,
127.633,-2.0260146,1.91015,9.390234,-0.010672063,0.0031250828,-0.007389525,-27008.0,-20227.5,-28286.5,
127.749,-2.0691102,1.9293036,9.3303792,0.0049159976,-0.01566052,0.008731454,-27264.0,-19459.5,-27774.5,
127.865,-2.006861,1.83592984,9.385446,-0.012270838,0.0064558648,-0.0019270442,-26752.0,-18691.5,-28030.5,
127.983,-1.9781306,1.8838138,9.378263,-0.0060089676,0.0008601546,-0.0015273513,-27776.0,-18947.5,-27774.5,
128.112,-1.982919,2.0202834,9.402205,0.0054489224,-0.0015380084,-0.0021935068,-27776.0,-17923.5,-28798.5,
128.229,-2.0140436,1.9125442,9.349533,0.007180929,-0.0006053895,0.0026028176,-27776.0,-17667.5,-29310.5,
128.345,-2.054745,1.9269094,9.428541,-0.003344342,-0.0010050833,-0.0009944253,-27520.0,-18179.5,-28030.5,
128.461,-2.0379856,1.8838138,9.35911,-0.009872675,0.0059229432,-0.0028596632,-27520.0,-18691.5,-27518.5,
128.577,-2.0236204,2.0107066,9.399811,-0.00028002262,-0.0019377023,0.0018034298,-27776.0,-18691.5,-28542.5,
128.703,-2.0475624,2.0107066,9.349533,-0.0037440508,0.0024589264,-0.005524288,-27520.0,-17667.5,-28542.5,
128.820,-1.925458,1.9939473,9.35911,-0.0038772672,0.0068555624,-0.0020602756,-27264.0,-18179.5,-28798.5,
128.937,-2.0715044,1.9053616,9.416571,-0.004276961,-0.00380293668,-0.000727963636,-28032.0,-18179.5,-28542.5,
129.056,-1.9781306,1.922121,9.375869,-0.009606212,0.0023256988,-0.003259357,-27520.0,-18179.5,-29054.5,
129.172,-1.9996784,1.9077558,9.404599,-0.0037440508,0.0040577016,0.0027360496,-27264.0,-18947.5,-29054.5,
129.295,-2.0355914,1.9747934,9.421359,-0.00028002262,-0.0016712397,0.004601286,-28032.0,-19203.5,-28542.5,
129.413,-1.9541884,2.0059182,9.325591,-0.0026781856,0.0016595423,-0.00046150108,-27520.0,-18179.5,-27774.5,
129.530,-2.1600898,1.9293036,9.332773,0.000919044,-0.0022041648,0.004734517,-28544.0,-17411.5,-27262.5,
129.645,-2.162484,2.1328108,9.347138,-0.0101391376,0.008987259,-0.0028596632,-29056.0,-17411.5,-29310.5,
129.768,-1.9182754,1.898179,9.361504,-0.0020120292,-0.0011383183,7.142406e-05,-29824.0,-16131.5,-28798.5,
129.884,-2.0140436,2.0011298,9.325591,-0.0053428112,0.00072692332,-0.0012608878,-31360.0,-17155.5,-29310.5,
130.002,-2.066716,1.86944868,9.304043,-0.0054760424,0.0009933859,-0.003259357,-31616.0,-17667.5,-29566.5,
130.119,-1.9733422,1.87423716,9.399811,-0.0057424904,0.0036580116,-0.0020602756,-32384.0,-17923.5,-30334.5,
130.237,-1.9350348,1.9388804,9.409388,-0.004676655,-0.0006053895,-0.0016605817,-31616.0,-18435.5,-30334.5,
130.360,-2.0810812,1.9293036,9.332773,-0.0032111108,0.0049903208,-0.002326738,-31360.0,-17411.5,-29054.5,
130.476,-1.9685538,1.91015,9.406994,-0.005609274,0.0040577016,-0.0028596632,-31872.0,-16899.5,-28798.5,
130.591,-1.9158812,1.946063,9.430936,-0.004676655,-0.0028703212,-0.0019270442,-31872.0,-17155.5,-28798.5,
130.707,-2.0499566,1.886208,9.426147,-0.002411738,0.0016595423,0.0020698932,-31872.0,-16899.5,-29566.5,
130.823,-2.0595334,1.9149384,9.447695,-0.004809886,0.0041909368,-0.00698983136,-31360.0,-17667.5,-29822.5,
130.946,-1.9805248,2.0083124,9.347138,-0.0049431176,-0.004069403,0.00366866784,-31616.0,-17411.5,-29054.5,
131.064,-2.0355914,1.886208,9.3543216,-0.0021452606,0.0019260049,-0.0019270442,-31872.0,-17411.5,-29566.5,
131.183,-2.0738986,1.91015,9.378263,-0.0092065184,0.006056171,-0.0053910568,-32128.0,-17411.5,-28542.5,
131.298,-2.0355914,1.9412746,9.375869,-0.00720804936,6.0766936e-05,-0.0064569064,-31360.0,-17411.5,-29054.5,
131.417,-1.8799682,1.934092,9.383052,-0.0037440508,0.00059369208,0.0027360496,-31616.0,-17411.5,-27774.5,
131.540,-2.078687,1.8909964,9.344745,-0.0016123354,0.010452803,-0.004191975,-32128.0,-16899.5,-28542.5,
131.657,-2.0643218,1.9484572,9.363898,-0.0017455816,0.0025921612,0.00047111884,-31616.0,-17667.5,-29310.5,
131.774,-2.0020726,1.98197632,9.385446,-0.012936994,0.0029918552,-0.002326738,-31360.0,-16899.5,-28798.5,
131.891,-2.0284088,1.9293036,9.35911,-0.00014679134,-0.0024706236,0.005667136,-32128.0,-17411.5,-28286.5,
132.007,-2.0260146,1.99873568,9.426147,-0.0040104984,-0.0039361716,0.001004043,-31872.0,-17411.5,-29054.5,
132.131,-1.9446116,1.86944868,9.349533,-0.0026781856,-0.004469093,-0.0015273513,-31360.0,-17923.5,-29566.5,
132.248,-1.8871508,1.9245152,9.447695,-0.008140668,0.0057897084,-0.0028596632,-31872.0,-17411.5,-29310.5,
132.364,-1.8368726,2.1399934,9.34235,0.0021181404,0.0008601546,-0.0031261258,-31360.0,-17923.5,-29310.5,
132.480,-2.0738986,1.99634136,9.447695,-0.0017455816,-0.00180447468,-0.0003282698,-31616.0,-17667.5,-28542.5,
132.599,-2.0379856,1.9556398,9.404599,-0.0020120292,0.0013930798,-0.0003282698,-31616.0,-17411.5,-30078.5,
132.722,-2.0451682,1.9556398,9.38784,-0.0057424904,-0.00273709,-0.0025932006,-31872.0,-17155.5,-29054.5,
132.838,-2.0164378,1.9149384,9.435724,-0.0014791042,0.008187875,-0.0037922818,-31872.0,-17667.5,-28798.5,
132.956,-2.066716,1.9484572,9.416571,-0.002811417,0.0045906304,-0.0057907504,-32128.0,-17667.5,-29822.5,
133.072,-2.030803,1.9771876,9.454878,-0.0004132688,-0.000738620736,-6.180722e-05,-32384.0,-17923.5,-29054.5,
133.195,-2.018832,1.98437036,9.3303792,-0.003344342,0.0021924674,-0.0043252064,-32128.0,-17411.5,-29310.5,
133.313,-2.0331972,1.9053616,9.447695,-0.004276961,0.0011266135,7.142406e-05,-32128.0,-17411.5,-29566.5,
133.429,-2.0331972,1.886208,9.399811,-0.0013458729,-0.0004721582,-0.0015273513,-31360.0,-17411.5,-29566.5,
133.546,-1.9972842,1.98676468,9.320803,-0.004676655,0.0096534152,-0.0013941191,-31872.0,-17155.5,-29054.5,
133.664,-2.006861,1.9747934,9.435724,-0.003344342,-0.0063343348,0.002336355,-32128.0,-17155.5,-29310.5,
133.786,-1.9637654,1.8909964,9.363898,0.0003861338,-0.010464504,0.004734517,-32128.0,-17411.5,-29310.5,
133.902,-2.1098116,1.84311252,9.356715,0.0010522902,-0.0022041648,0.00073758052,-31872.0,-17411.5,-28798.5,
134.020,-2.1433304,1.8574776,9.337562,-0.00720804936,-0.004202634,-0.0011276575,-31616.0,-17667.5,-29310.5,
134.139,-2.0595334,1.9029674,9.397417,-0.007607743,0.008854028,-0.0064569064,-31616.0,-16899.5,-28798.5,
134.256,-1.9996784,1.9556398,9.399811,-0.009606212,0.008854028,-0.00046150108,-31616.0,-17667.5,-29310.5,
134.378,-2.030803,1.9771876,9.337562,-0.0068083555,0.0019260049,-0.000727963636,-32128.0,-17667.5,-28286.5,
