# epoch_start_s=1609460646
timestamp_s,accel_x,accel_y,accel_z,gyro_x,gyro_y,gyro_z,mag_x,mag_y,mag_z,wind_vane_deg
# wind_vane_deg is blank for the first 270 s, populated for the final 30 s
0.124,6.324961,7.11514436,3.953002,-0.0030778944,0.000460457068,-0.0035258192,-4224.0,29181.5,7297.5,
0.243,6.3536916,7.122327,3.96976132,-0.006142199,0.00179276984,0.00047111884,-3968.0,30205.5,8833.5,
0.361,6.360874,7.136692,3.9458192,-0.002811417,-0.00313678,0.00020465534,-3968.0,29949.5,7553.5,
0.477,6.310596,7.11275,3.9865208,-0.007074803,0.00912049,-0.0005947314,-4736.0,29949.5,7553.5,
0.596,6.286654,7.1175384,4.008069,-0.0021452606,0.0012598485,-0.0011276575,-5504.0,29437.5,8833.5,
0.713,6.3297496,7.122327,4.008069,-0.004676655,0.0043241644,-0.00046150108,-4224.0,29437.5,8321.5,
0.829,6.324961,7.1079616,3.9817324,-0.0029446482,0.0009933859,-0.0025932006,-4224.0,30205.5,8321.5,
0.946,6.356086,7.1295096,4.017646,-0.0054760424,0.00912049,-0.0001950385,-3968.0,30461.5,9345.5,
1.060,6.2818656,7.1199332,4.0248284,-0.0026781856,-0.0062011032,0.0024695872,-5248.0,29693.5,9345.5,
1.183,6.368057,7.1175384,3.996098,-0.0030778944,0.0036580116,-0.0016605817,-5248.0,29693.5,8577.5,
1.300,6.2914424,7.10556736,4.022434,-0.0030778944,-0.0023373962,-0.0024599694,-4736.0,29693.5,8577.5,
1.418,6.3034132,7.146269,4.022434,0.0025178344,0.0059229432,0.00087081176,-3968.0,29949.5,8577.5,
1.534,6.346509,7.11514436,4.005675,-0.006675124,0.005256787,-0.0003282698,-4480.0,29949.5,8321.5,
1.649,6.3417208,7.124721,3.95539616,-0.004276961,0.0009933859,0.000337886632,-3456.0,29949.5,8321.5,
1.774,6.296231,7.098385,3.9913096,-0.0021452606,0.000460457068,-0.0008611949,-4480.0,29693.5,9601.5,
1.891,6.2938368,6.9762808,4.0511648,-0.008140668,0.004857093,-0.0043252064,-4992.0,29693.5,8065.5,
2.007,6.360874,7.06726036,4.008069,-0.0060089676,0.0075217187,-0.0025932006,-5760.0,29949.5,10113.5,
2.126,6.334538,7.1175384,4.082289,-0.008407116,0.011385422,-0.006723369,-4992.0,29693.5,9089.5,
2.240,6.348903,7.191759,3.905118,-0.003344342,0.0055232496,-0.0036590504,-6016.0,29949.5,8577.5,
2.361,6.4231232,7.0600776,3.9865208,-0.002811417,0.003791239,-0.005124594,-5248.0,29437.5,8321.5,
2.477,6.324961,7.0313468,4.022434,-0.0005464852,0.0027253888,-0.005124594,-4736.0,30205.5,8321.5,
2.592,6.5835348,7.002617,4.017646,-0.0030778944,0.0059229432,0.000337886632,-4736.0,29949.5,8833.5,
2.709,6.22201,7.1271152,3.953002,0.01504156,0.0402966,-0.008188913,-4992.0,29693.5,8577.5,
2.822,6.289048,7.392872,3.9721556,-0.02652657,0.05934867,-0.005923982,-5760.0,29181.5,9601.5,
2.936,6.561987,7.0193763,4.046376,-0.009073272,0.00698879,-0.0175151,-5504.0,29437.5,9857.5,
3.056,6.1190596,7.2564024,4.022434,-0.012936994,0.003791239,-0.0035258192,-6528.0,29181.5,10369.5,
3.172,6.3656624,7.0959907,3.99849232,-0.00094617908,0.010985728,0.00193666116,-6016.0,29437.5,9089.5,
3.294,6.231587,7.14148036,4.0391936,-0.0025449544,0.006189406,0.0054006736,-6016.0,29437.5,9857.5,
3.411,6.037657,7.5437064,4.4222656,-0.044912488,0.015915284,0.010863154,-5504.0,28413.5,9345.5,
3.528,6.0927232,7.182182,4.127779,0.009579092,-0.0012715459,0.00073758052,-5760.0,29181.5,9601.5,
3.650,6.262712,7.0959907,4.02004,-0.002411738,0.0055232496,-0.002326738,-5504.0,28925.5,10369.5,
3.766,5.86288,7.11275,4.2187584,0.0031839908,-0.01352882,0.005267442,-6272.0,29437.5,9601.5,
3.879,6.1669436,7.0552892,4.0870776,-0.0050763636,0.00805464,0.003801899,-4480.0,28925.5,10113.5,
3.997,6.336932,7.148663,3.93145416,0.000785827636,0.004857093,0.00286928,-4992.0,29181.5,10369.5,
4.113,6.296231,7.160634,4.0248284,0.008513242,-0.016459908,0.003801899,-5760.0,29437.5,10369.5,
4.233,6.28426,7.311469,3.8859644,-0.018266246,0.02097807,-0.0048581316,-5504.0,29181.5,9857.5,
4.348,6.621842,6.835023,4.187634,-0.08728002,0.06734254,-0.0072562936,-6016.0,29181.5,10113.5,
4.462,6.087935,6.811081,4.046376,-0.11885585,0.133292,-0.022577886,-7040.0,28925.5,12161.5,
4.576,5.7719008,6.7248892,4.9202596,-0.16015752,0.1656672,-0.051622296,-8320.0,29949.5,15745.5,
4.693,6.480584,7.08401968,4.4198712,-0.2700733,0.28331038,-0.054953076,-9856.0,30717.5,20097.5,
4.815,5.968225,7.28992136,5.1548916,-0.3815878,0.31342064,-0.10891173,-13184.0,32509.5,26753.5,
4.932,5.139831,6.8278402,5.660068,-0.393711868,0.37390764,-0.08026701,-16768.0,-31490.5,-31870.5,
5.050,5.398405,5.4990584,6.2729836,-0.2977854,0.2352139,-0.10571418,-19840.0,-29442.5,-24190.5,
5.165,5.1350428,5.7049592,7.00800368,-0.10193546,0.09465495,-0.016049556,-22144.0,-27394.5,-19326.5,
5.283,5.0584284,6.164646,6.632114,0.026765912,-0.026585482,0.0024695872,-22656.0,-26626.5,-18558.5,
5.399,5.1182832,5.937197,6.5650764,0.08125749,-0.08574015,0.009664073,-21888.0,-27138.5,-19326.5,
5.519,4.7208456,6.58842,6.1772156,0.11683024,-0.218571716,-0.008055681,-22144.0,-28162.5,-21118.5,
5.635,4.651414,6.382519,6.2490416,0.26498336,-0.41295612,0.03284631,-20096.0,-29698.5,-24702.5,
5.751,5.4845964,6.696159,5.4852916,0.32613652,-0.441467568,0.07361507,-15744.0,-31234.5,-31358.5,
5.868,6.3273552,7.0241648,4.6592916,0.2621855,-0.26053952,0.047501748,-12416.0,32253.5,25729.5,
5.984,6.564381,7.3162576,4.235518,0.016773582,-0.061758532,-0.013118468,-10880.0,31229.5,20609.5,
6.105,5.920341,6.6339096,5.0926424,0.005582154,-0.011663582,-0.004458438,-10112.0,30717.5,18817.5,
6.221,6.114271,6.8685416,4.7742132,0.010511711,-0.026585482,0.0018034298,-9856.0,30973.5,18049.5,
6.338,6.111877,6.8781184,4.8101264,-0.0058757364,0.02737317,-0.011786156,-9600.0,30973.5,17793.5,
6.455,5.9849844,7.0696548,4.5946484,0.0050492288,0.0035247804,-0.0025932006,-9344.0,31485.5,18561.5,
6.574,5.836544,7.191759,4.6568976,-0.013336688,0.0053900144,0.003801899,-9344.0,32253.5,18817.5,
6.696,5.956254,6.87572436,4.7670308,-0.00520958,-0.01606021,-0.0019270442,-9600.0,31741.5,18305.5,
6.811,5.9035816,6.77037936,4.901106,-0.00774095936,0.0028586238,-0.00046150108,-9344.0,31485.5,18561.5,
6.930,5.977802,6.906849,4.8268856,-0.007474512,0.0096534152,-0.004191975,-9344.0,31229.5,18305.5,
7.045,6.078358,6.9283968,4.795761,-0.0054760424,0.009253722,-0.0043252064,-9856.0,30717.5,18049.5,
7.161,6.004138,6.846994,4.7742132,-0.0040104984,-0.00180447468,0.0024695872,-9856.0,31485.5,18049.5,
7.284,5.977802,6.897272,4.7885784,-0.002411738,-0.0034032464,0.0039351304,-9600.0,31229.5,18049.5,
7.399,6.02808,6.85417636,4.781396,-0.004809886,0.0035247804,-0.0036590504,-8320.0,31485.5,19073.5,
7.517,5.968225,6.87572436,4.8268856,-0.007607743,0.0043241644,-0.0008611949,-9600.0,31485.5,18305.5,
7.634,6.0592048,6.91163736,4.7670308,0.0002528876,0.0024589264,0.0006043492,-9856.0,30717.5,18561.5,
7.751,6.054416,6.823052,4.7861844,-0.002811417,0.0059229432,-0.002326738,-10112.0,31229.5,18561.5,
7.878,5.977802,6.902061,4.7502712,0.0003861338,-0.0003389269,0.0006043492,-9856.0,31485.5,19585.5,
7.995,6.0831468,6.870936,4.795761,-0.0022784918,0.0009933859,0.0020698932,-9856.0,31229.5,19841.5,
8.110,5.9490716,6.858965,4.735906,-0.0050763636,0.0029918552,-0.00046150108,-9088.0,31229.5,18305.5,
8.226,6.016109,6.8302344,4.769425,0.002384603,0.00059369208,-0.0013941191,-8832.0,31485.5,19585.5,
8.343,6.0208976,6.8685416,4.819703,-0.002811417,0.0035247804,-0.008055681,-9344.0,31741.5,19585.5,
8.460,5.994561,6.8805128,4.7790016,-0.006541893,-0.0019377023,-0.0036590504,-9088.0,31229.5,19329.5,
8.584,5.992167,6.933185,4.771819,0.0027842968,0.0028586238,-0.0029928944,-10112.0,30973.5,19073.5,
8.700,5.965831,6.8637532,4.7742132,-0.0010794252,0.005256787,-0.0021935068,-9856.0,30717.5,18817.5,
8.817,6.025686,6.89248368,4.7406944,-0.00347757336,0.0043241644,-0.002726432,-10368.0,31229.5,19073.5,
8.936,6.004138,6.8517824,4.8340684,-0.0005464852,-0.0022041648,-0.005124594,-10112.0,31485.5,18817.5,
9.051,6.016109,6.91882,4.8580104,-0.00414373,0.0011266135,-0.0048581316,-10880.0,31229.5,19841.5,
9.172,5.95386,6.835023,4.7885784,-0.006142199,-0.00180447468,0.00193666116,-9856.0,30973.5,18049.5,
9.289,5.980196,6.882907,4.819703,-0.0014791042,-0.0012715459,-0.0035258192,-10112.0,30973.5,18561.5,
9.406,5.9993496,6.8805128,4.8963176,-0.00081294776,0.0036580116,-0.0005947314,-9856.0,30973.5,18561.5,
9.523,6.0113208,6.85417636,4.795761,-0.0029446482,0.006189406,-0.001793813,-9600.0,31229.5,19073.5,
9.640,6.0472336,6.91882,4.676051,-0.0032111108,0.007921409,-0.0021935068,-9344.0,30973.5,18561.5,
9.760,5.9849844,6.885301,4.8364624,-0.0058757364,-0.0003389269,-0.0021935068,-9344.0,30973.5,19329.5,
9.876,6.0232916,6.85657068,4.7790016,-0.00933975,-0.0071337184,0.0022031236,-8832.0,30717.5,18817.5,
9.993,5.9993496,6.894878,4.817309,-0.0029446482,-0.0063343348,-0.002326738,-8832.0,31485.5,19585.5,
10.109,5.9849844,6.894878,4.819703,0.0026510656,-0.0011383183,0.0027360496,-9344.0,31741.5,19841.5,
10.226,6.0113208,6.8900892,4.771819,0.0019849092,0.00738848368,0.0006043492,-9088.0,30973.5,18561.5,
10.350,5.9371004,6.885301,4.8987116,-0.0038772672,-0.0028703212,0.00020465534,-9344.0,30973.5,18561.5,
10.467,5.9993496,6.894878,4.723935,-0.0054760424,0.0049903208,-0.0024599694,-9344.0,30973.5,20353.5,
10.583,5.9514656,6.861359,4.831674,0.001451984,0.0033915452,0.0022031236,-8576.0,31485.5,19841.5,
10.699,5.9371004,6.8302344,4.817309,-0.0054760424,0.0077881776,-0.0008611949,-9856.0,30717.5,18817.5,
10.816,6.037657,6.81826368,4.8220972,-0.0073412808,0.009786647,-0.004458438,-9856.0,30973.5,20609.5,
10.938,6.016109,6.9283968,4.8029436,-0.002411738,0.005256787,-0.005657519,-9600.0,30461.5,18817.5,
11.053,5.994561,6.906849,4.819703,-0.002411738,0.005123552,-0.0015273513,-9856.0,31229.5,18817.5,
11.168,6.042445,6.846994,4.807732,0.000119671224,0.0028586238,-0.0025932006,-9600.0,30973.5,19073.5,
11.285,5.9873784,6.80868668,4.807732,-0.0026781856,0.000460457068,-0.0005947314,-9856.0,31229.5,18561.5,
11.404,6.018503,6.8517824,4.819703,-0.0014791042,0.0028586238,-0.0025932006,-9344.0,31229.5,18305.5,
11.526,6.042445,6.8661475,4.7167524,-0.0020120292,0.0029918552,-0.0045916692,-9088.0,30717.5,18817.5,
11.645,6.0448392,6.837417,4.8149148,0.0002528876,-0.00313678,-0.0016605817,-9600.0,31229.5,19329.5,
11.760,5.922735,6.813475,4.879558,-0.004276961,0.0013930798,-0.000727963636,-9344.0,30717.5,19585.5,
11.876,6.037657,6.909243,4.8029436,0.002384603,0.0020592324,-0.004458438,-8832.0,30717.5,19329.5,
11.992,6.0328684,6.97149236,4.8388568,-0.008673593,0.0043241644,0.00073758052,-8832.0,30973.5,18561.5,
12.115,6.0232916,6.8661475,4.7550596,-0.0040104984,-0.0063343348,0.005134211,-8576.0,30717.5,19329.5,
12.233,6.063993,6.902061,4.8220972,-0.00081294776,-0.000205695632,7.142406e-05,-9344.0,30461.5,19073.5,
12.352,5.970619,6.8900892,4.747877,0.001451984,-0.0006053895,0.0011372734,-8320.0,31485.5,19073.5,
12.467,5.965831,6.909243,4.8268856,-0.00067971648,0.0044573956,-0.0037922818,-9088.0,31485.5,19073.5,
12.586,6.001744,6.870936,4.781396,-0.004809886,0.0025921612,7.142406e-05,-9344.0,30717.5,18305.5,
12.705,5.9754076,6.85417636,4.8125204,0.0003861338,0.0027253888,-0.0028596632,-9088.0,30973.5,19329.5,
12.823,5.980196,6.902061,4.831674,-0.00347757336,0.0059229432,-0.0005947314,-10112.0,31485.5,19073.5,
12.941,6.001744,6.8876952,4.8364624,0.0005193651,0.001526311,0.00087081176,-10368.0,30973.5,18049.5,
13.057,6.02808,6.858965,4.7622424,-0.0014791042,0.0067223272,-0.003259357,-9856.0,31229.5,19585.5,
13.173,6.001744,6.8876952,4.7909728,-0.00081294776,0.0057897084,7.142406e-05,-9600.0,30717.5,18817.5,
13.294,6.013715,6.8517824,4.78379,-0.0021452606,0.004857093,0.000337886632,-9600.0,30973.5,18305.5,
13.410,5.941889,6.8876952,4.8364624,-0.00081294776,0.0028586238,7.142406e-05,-9600.0,30973.5,17793.5,
13.527,5.9730132,6.894878,4.8484336,-0.0014791042,0.00738848368,-0.0013941191,-10624.0,30973.5,18305.5,
13.645,6.061599,6.894878,4.7383004,-0.0017455816,0.008454334,-0.0035258192,-10368.0,30461.5,19329.5,
13.761,6.016109,6.846994,4.7406944,-0.0038772672,0.0008601546,-0.0016605817,-9856.0,30461.5,19841.5,
13.883,6.0352624,6.8206576,4.8220972,-0.0010794252,-0.0010050833,-0.0021935068,-10112.0,31229.5,19585.5,
14.001,5.934706,6.870936,4.843645,-0.00094617908,0.0023256988,-0.004191975,-9344.0,30973.5,19073.5,
14.116,6.037657,6.8876952,4.745483,-0.0029446482,0.0055232496,-0.0031261258,-9600.0,30973.5,19073.5,
14.233,6.006532,6.861359,4.805338,-0.00774095936,0.0040577016,-0.0003282698,-9088.0,31485.5,19329.5,
14.349,6.0089264,6.9283968,4.7646364,-0.006142199,0.0068555624,0.00087081176,-10112.0,31229.5,18817.5,
14.472,6.042445,6.897272,4.7502712,0.0015852153,-0.0011383183,0.001004043,-9088.0,30973.5,19073.5,
14.588,5.9514656,6.861359,4.8244916,-0.0022784918,0.003924474,0.000337886632,-9600.0,31229.5,19073.5,
14.706,5.9514656,6.885301,4.8963176,-0.004809886,0.0036580116,0.0018034298,-10624.0,31229.5,19329.5,
14.822,5.9754076,6.9355792,4.7909728,-0.004809886,0.0023256988,-0.0019270442,-9856.0,31229.5,18817.5,
14.940,6.001744,6.91403136,4.7143584,-0.0037440508,0.0041909368,-0.0016605817,-9600.0,30717.5,19841.5,
15.063,6.0568104,6.8517824,4.793367,-0.0013458729,0.0059229432,0.004201592,-10624.0,30717.5,19329.5,
15.180,6.054416,6.861359,4.7981552,0.0015852153,-7.246435e-05,-0.0012608878,-10112.0,30973.5,19329.5,
15.296,5.9754076,6.8876952,4.78379,-0.00414373,0.0023256988,0.0015369672,-9600.0,30717.5,18561.5,
15.411,5.958648,6.957127,4.7550596,0.0003861338,0.0025921612,-0.002726432,-9344.0,31229.5,19073.5,
15.527,5.9035816,6.882907,4.843645,-0.0022784918,-0.0010050833,-0.000727963636,-9856.0,31741.5,19329.5,
15.651,5.9634368,6.849388,4.8101264,-0.006142199,0.008321103,-0.0005947314,-10112.0,30973.5,18817.5,
15.766,6.052022,6.8781184,4.7502712,-0.00520958,0.00912049,-0.0045916692,-9856.0,30973.5,18817.5,
15.880,6.0208976,6.8900892,4.7909728,0.00065259636,0.0021924674,-0.002326738,-9088.0,31229.5,18049.5,
15.998,6.025686,6.894878,4.819703,-0.0017455816,-0.0043358652,-0.0001950385,-9856.0,31229.5,19073.5,
16.112,5.7958428,6.9834632,4.9561724,0.0049159976,-0.0058014056,-0.005923982,-9344.0,31485.5,18817.5,
16.235,5.9730132,6.897272,4.8604044,-1.3560057e-05,-0.00380293668,-0.0024599694,-9600.0,30717.5,18305.5,
16.354,5.994561,6.894878,4.733512,-0.007874206,0.0064558648,0.0015369672,-9344.0,31229.5,19073.5,
16.469,6.049628,6.85417636,4.7622424,-0.0010794252,-0.000871852064,0.00286928,-9856.0,30973.5,18305.5,
16.586,5.95386,6.870936,4.8340684,-0.0064086468,0.006056171,-0.0049913632,-10112.0,30973.5,18817.5,
16.701,6.004138,6.906849,4.7263292,-0.0017455816,0.0067223272,-6.180722e-05,-9344.0,31229.5,19329.5,
16.823,5.9610424,6.9164252,4.771819,0.0049159976,-0.0030035526,-0.002726432,-10112.0,30717.5,18561.5,
16.939,5.9754076,6.933185,4.78379,0.004249841,-0.012596201,-0.0052578252,-9600.0,30973.5,18305.5,
17.054,5.944283,6.969098,4.7646364,0.0005193651,6.0766936e-05,0.00087081176,-10368.0,31229.5,19329.5,
17.170,5.9155524,6.870936,4.8125204,0.0027842968,-0.019923918,-0.0011276575,-9600.0,30973.5,19073.5,
17.287,6.159761,7.0337416,4.6353496,0.001451984,-0.011530351,0.00087081176,-9600.0,31229.5,17793.5,
17.404,5.922735,6.8876952,4.831674,-0.00347757336,0.006589096,-0.0008611949,-9344.0,31741.5,18049.5,
17.525,6.0568104,6.8996664,4.7167524,-0.00694158636,0.011918347,-0.0009944253,-9088.0,31741.5,17537.5,
17.644,6.040051,6.9643096,4.747877,-0.0010794252,0.0020592324,-0.0025932006,-9600.0,31485.5,18305.5,
17.761,6.090329,6.837417,4.688022,-0.00361080468,-0.0016712397,-0.0015273513,-9344.0,31485.5,18049.5,
17.878,6.052022,6.8685416,4.7383004,0.0003861338,-0.0019377023,0.0006043492,-9600.0,31229.5,17793.5,
17.995,5.9873784,6.85417636,4.7670308,-0.01147145,6.0766936e-05,0.0018034298,-9344.0,31229.5,19329.5,
18.119,6.097512,6.85657068,4.8005496,-0.0068083555,0.01218481,7.142406e-05,-8320.0,31741.5,18049.5,
18.238,6.0208976,6.80629236,4.7383004,0.0030507594,0.015382361,-0.0060572124,-8576.0,30973.5,18817.5,
18.357,6.2004624,6.727284,4.8005496,-0.00094617908,0.009253722,0.0031357436,-8064.0,32509.5,18305.5,
18.473,6.040051,6.897272,4.6353496,-0.00347757336,0.0076549464,-0.0029928944,-10624.0,30205.5,17025.5,
18.591,6.0807524,6.885301,4.70957,-0.0045434236,0.009386953,0.0022031236,-9600.0,30973.5,18817.5,
18.712,5.9610424,6.8900892,4.771819,-0.0068083555,0.005656477,-0.0003282698,-9856.0,31485.5,19073.5,
18.830,6.02808,6.84459968,4.8244916,-0.004276961,0.00805464,-0.0012608878,-9600.0,31485.5,18817.5,
18.945,5.920341,6.7248892,4.769425,-0.015868082,0.009919878,-0.002326738,-9600.0,31485.5,17537.5,
19.060,6.037657,6.882907,4.7742132,-0.00347757336,0.0011266135,-0.0036590504,-9344.0,31229.5,18561.5,
19.183,6.5236796,6.250838,5.063912,-0.019465312,0.051488028,-0.0065901376,-9856.0,31229.5,17537.5,
19.305,6.233981,6.81586936,4.7502712,0.008779705,-0.010864198,-0.006190444,-9856.0,31485.5,18049.5,
19.421,6.085541,6.870936,4.757454,0.0011855215,-0.0035364776,0.0026028176,-9600.0,30973.5,18305.5,
19.536,5.9131584,6.8637532,4.82928,-0.005609274,-0.0020709336,-0.0011276575,-9600.0,31229.5,18561.5,
19.654,5.968225,6.904455,4.7646364,-0.006541893,0.010452803,-0.0036590504,-9344.0,31997.5,19585.5,
19.772,6.0711756,6.87572436,4.7406944,-0.009073272,0.0041909368,0.001004043,-9600.0,31485.5,18305.5,
19.895,6.0328684,6.885301,4.7502712,-0.00774095936,0.010319572,0.0006043492,-9600.0,31229.5,19073.5,
20.013,5.98259,6.861359,4.699993,-0.006541893,0.0053900144,-0.00046150108,-9344.0,30973.5,18817.5,
20.128,6.0232916,6.8685416,4.8101264,-0.0073412808,0.0009933859,-0.00046150108,-8832.0,31229.5,19329.5,
20.245,6.0208976,6.835023,4.807732,0.0021181404,0.0009933859,-0.002726432,-8832.0,31485.5,18817.5,
20.360,6.040051,6.835023,4.747877,-0.00347757336,-0.0034032464,-0.0008611949,-9344.0,31229.5,19073.5,
20.482,5.9131584,6.8517824,4.819703,-0.0050763636,-0.00180447468,0.0035354364,-10112.0,31485.5,18817.5,
20.601,5.934706,6.904455,4.8220972,-0.00347757336,0.0027253888,-0.0035258192,-9856.0,31229.5,19073.5,
20.720,5.9873784,6.906849,4.7861844,-0.0030778944,0.0053900144,-0.0013941191,-9344.0,30717.5,18305.5,
20.838,6.037657,6.9403677,4.7766076,-0.002411738,0.0028586238,0.0020698932,-9344.0,31229.5,18305.5,
20.955,6.066387,6.921214,4.759848,-0.0014791042,0.0053900144,-0.002326738,-9600.0,30973.5,19073.5,
21.075,6.052022,6.8326284,4.7430888,0.0005193651,0.00019399822,-0.0035258192,-9344.0,30973.5,19073.5,
21.192,6.052022,6.8302344,4.759848,-0.0012126416,-0.000205695632,-0.0003282698,-9344.0,30973.5,18305.5,
21.308,5.9993496,6.894878,4.795761,-0.0025449544,-0.0083328,0.0026028176,-9856.0,30461.5,18561.5,
21.424,6.0232916,6.906849,4.697599,0.0045163036,-0.00180447468,0.00726591168,-9600.0,30461.5,18049.5,
21.542,6.0472336,6.89248368,4.7646364,0.0015852153,-0.0010050833,0.0031357436,-9088.0,30973.5,18305.5,
21.668,6.0687816,6.85657068,4.6952048,-0.0092065184,0.005256787,0.0014037369,-8832.0,30461.5,18817.5,
21.786,6.049628,6.902061,4.723935,-0.0014791042,0.0029918552,-0.0013941191,-8576.0,30973.5,18305.5,
21.904,6.0352624,6.870936,4.7790016,-0.001878798,0.005256787,-0.003259357,-10112.0,30205.5,18561.5,
22.019,6.0208976,6.882907,4.7023872,-0.0021452606,-0.0032700152,0.0026028176,-9856.0,30973.5,19073.5,
22.136,6.004138,6.921214,4.8149148,-0.0026781856,0.0019260049,0.0022031236,-9600.0,30973.5,18561.5,
22.260,6.0208976,6.933185,4.8149148,-0.005609274,-0.00273709,-0.0009944253,-9344.0,30973.5,18561.5,
22.374,6.030474,6.8900892,4.7526656,0.0015852153,0.003791239,-0.0029928944,-9344.0,31741.5,18049.5,
22.491,6.040051,6.8996664,4.78379,-0.002411738,-0.003669709,-0.0001950385,-8576.0,30717.5,18305.5,
22.605,6.135819,6.8517824,4.7766076,-0.0020120292,0.0077881776,-0.0013941191,-9344.0,31229.5,19585.5,
22.722,6.0448392,6.84459968,4.759848,-0.0013458729,-0.0010050833,0.00073758052,-8576.0,31229.5,18049.5,
22.847,6.049628,6.870936,4.7287236,-0.00720804936,-7.246435e-05,-0.0011276575,-8576.0,31229.5,17025.5,
22.964,6.0113208,6.885301,4.78379,-0.0044102072,0.00019399822,0.0031357436,-9600.0,30461.5,16769.5,
23.080,6.004138,6.91163736,4.70957,-0.0030778944,0.0021924674,-0.0028596632,-9344.0,31229.5,18561.5,
23.197,5.968225,6.897272,4.7742132,-0.00028002262,0.00072692332,-6.180722e-05,-9344.0,30717.5,17793.5,
23.313,6.0208976,6.9355792,4.7406944,-0.004676655,-0.0004721582,-0.0031261258,-9344.0,30973.5,17025.5,
23.435,6.049628,6.8876952,4.6928104,-0.0068083555,0.004723858,-0.0013941191,-9856.0,31485.5,17537.5,
23.553,5.980196,6.904455,4.771819,-0.001878798,0.0019260049,-0.0011276575,-9088.0,31229.5,17537.5,
23.672,6.054416,6.904455,4.805338,-0.0025449544,0.0013930798,-0.003259357,-9856.0,30973.5,17537.5,
23.789,5.9873784,6.897272,4.7311176,-0.0016123354,-0.0024706236,-0.0029928944,-9088.0,31229.5,17281.5,
23.906,5.9849844,6.885301,4.8101264,-0.00720804936,0.0041909368,-0.0035258192,-9088.0,30461.5,17281.5,
24.030,6.016109,6.8781184,4.7622424,-0.0044102072,0.0035247804,-0.0035258192,-9344.0,31485.5,18049.5,
24.148,6.001744,6.861359,4.805338,-0.010538831,0.0027253888,-0.003259357,-8832.0,31485.5,17025.5,
24.264,6.075964,6.8900892,4.7191468,-0.007474512,0.0008601546,-0.0021935068,-9088.0,30717.5,17793.5,
24.379,5.9754076,6.91882,4.7383004,0.0015852153,0.00179276984,-6.180722e-05,-8832.0,30973.5,16769.5,
24.496,6.001744,6.8685416,4.7406944,0.0027842968,0.0032583176,0.000337886632,-9600.0,30717.5,18305.5,
24.620,5.992167,6.930791,4.723935,-1.3560057e-05,0.004723858,-0.002326738,-9344.0,30205.5,18049.5,
24.735,6.0232916,6.84459968,4.6664744,-0.003344342,0.0045906304,-0.0021935068,-9344.0,30461.5,18561.5,
24.853,6.0592048,6.87572436,4.735906,0.0013187528,0.0025921612,0.0015369672,-8832.0,30461.5,17281.5,
24.971,6.0208976,6.8637532,4.7263292,-0.0040104984,0.0059229432,-0.00046150108,-9088.0,30717.5,17281.5,
25.090,6.030474,6.8900892,4.82928,-0.0092065184,0.0041909368,-0.0052578252,-8064.0,30461.5,18305.5,
25.210,6.07357,6.909243,4.805338,-0.0021452606,-0.0020709336,0.0030025114,-9344.0,30973.5,16769.5,
25.325,6.078358,6.8685416,4.795761,-0.0026781856,0.0044573956,-0.003259357,-9600.0,30205.5,17281.5,
25.441,6.025686,6.89248368,4.723935,-0.0053428112,-0.000871852064,0.002336355,-8832.0,30717.5,17025.5,
25.559,6.0089264,6.85417636,4.7526656,-0.0025449544,6.0766936e-05,-0.0003282698,-10112.0,30717.5,18305.5,
25.678,6.0208976,6.885301,4.8268856,-0.0030778944,-0.000871852064,0.002336355,-8832.0,30717.5,17025.5,
25.801,6.016109,6.85417636,4.733512,-0.0014791042,0.0008601546,7.142406e-05,-10112.0,30717.5,17793.5,
25.917,6.001744,6.8422056,4.807732,-0.004676655,-7.246435e-05,0.0018034298,-9344.0,30973.5,17281.5,
26.033,6.0687816,6.87572436,4.7430888,-0.005609274,0.00179276984,-0.004458438,-9344.0,30205.5,18049.5,
26.151,6.052022,6.921214,4.7430888,-0.0016123354,0.0031250828,0.00020465534,-9600.0,30461.5,17793.5,
26.268,6.0472336,6.87333,4.7646364,-0.0029446482,0.0032583176,7.142406e-05,-9600.0,30461.5,18305.5,
26.384,5.9754076,6.906849,4.6952048,-0.0016123354,0.0031250828,7.142406e-05,-9344.0,30461.5,18049.5,
26.506,6.037657,6.91882,4.759848,-0.0032111108,0.004723858,-0.0003282698,-9088.0,31229.5,19073.5,
26.620,6.016109,6.897272,4.6688684,-0.0062754304,0.0020592324,0.0015369672,-9856.0,30973.5,18305.5,
26.737,5.992167,6.8876952,4.8699812,-0.0004132688,0.001526311,-0.0015273513,-9088.0,30461.5,18817.5,
26.853,6.0568104,6.8278402,4.7287236,-0.002811417,0.0021924674,-0.0005947314,-8320.0,31485.5,17025.5,
26.971,6.0113208,6.909243,4.7383004,0.00065259636,0.00019399822,0.00087081176,-10112.0,31229.5,17537.5,
27.095,6.030474,6.933185,4.7502712,-0.0016123354,0.0028586238,7.142406e-05,-9856.0,31485.5,17793.5,
27.211,6.030474,6.8996664,4.745483,-0.0032111108,0.0053900144,-0.005923982,-9600.0,30461.5,17793.5,
27.327,6.037657,6.8805128,4.7406944,-0.0040104984,0.005656477,-0.0025932006,-9600.0,31229.5,16769.5,
27.444,5.994561,6.870936,4.7790016,-0.0044102072,-0.00180447468,-0.0005947314,-9344.0,30973.5,17025.5,
27.560,5.934706,6.9164252,4.6904164,-0.007474512,0.0053900144,0.003268974,-9600.0,30973.5,17793.5,
27.681,6.006532,6.9355792,4.735906,-0.004276961,0.0040577016,-0.0025932006,-8832.0,31229.5,17281.5,
27.797,6.025686,6.8661475,4.661686,-0.0010794252,0.0009933859,0.0012705056,-9600.0,30717.5,18561.5,
27.914,5.9610424,6.904455,4.699993,-0.0005464852,-0.0004721582,0.0011372734,-9344.0,30717.5,17281.5,
28.032,5.994561,6.91163736,4.8125204,-0.0026781856,0.005123552,-0.00046150108,-8576.0,30973.5,18049.5,
28.149,6.0352624,6.897272,4.7047816,-0.0022784918,0.001526311,-0.0019270442,-9600.0,31229.5,17793.5,
28.271,6.061599,6.909243,4.7670308,-0.0004132688,0.0031250828,-0.0035258192,-9088.0,30973.5,17025.5,
28.387,6.109483,6.91403136,4.7071756,-0.004276961,0.0059229432,0.0014037369,-9600.0,31229.5,18049.5,
28.504,6.025686,6.846994,4.7023872,-1.3560057e-05,0.0023256988,0.00087081176,-9600.0,30973.5,18049.5,
28.621,5.980196,6.8637532,4.805338,-0.001878798,-0.0014047772,-0.0013941191,-8576.0,30973.5,18049.5,
28.738,5.9251292,6.8685416,4.817309,-1.3560057e-05,0.0029918552,-0.0025932006,-9088.0,31229.5,18049.5,
28.861,6.013715,6.8900892,4.8101264,-0.00347757336,0.0049903208,-0.00698983136,-9600.0,30973.5,17281.5,
28.980,6.030474,6.9164252,4.7646364,-0.00361080468,0.0053900144,-0.004191975,-9600.0,30973.5,17025.5,
29.097,6.061599,6.8661475,4.7670308,-0.00361080468,0.0033915452,-0.0048581316,-9600.0,30973.5,17537.5,
29.217,6.066387,6.930791,4.7287236,-0.0016123354,0.005256787,-0.0011276575,-9344.0,30973.5,17281.5,
29.333,6.049628,6.8996664,4.7885784,-0.0032111108,0.0016595423,-0.0012608878,-9088.0,30973.5,18049.5,
29.456,6.0568104,6.8996664,4.7646364,-0.0037440508,0.0031250828,-0.000727963636,-10112.0,30461.5,17281.5,
29.575,6.037657,6.8685416,4.747877,-0.00774095936,0.0033915452,-0.0008611949,-9856.0,30717.5,17793.5,
29.692,6.0208976,6.904455,4.6712628,-0.0022784918,0.0029918552,-0.002726432,-9344.0,30461.5,18305.5,
29.810,6.037657,6.909243,4.6928104,-0.004676655,-0.0023373962,-0.00046150108,-9088.0,31229.5,17537.5,
29.927,5.958648,6.89248368,4.819703,-0.0032111108,0.00179276984,-0.0011276575,-9600.0,30461.5,17025.5,
30.051,5.970619,6.885301,4.7885784,-0.003344342,0.0025921612,-0.0011276575,-8832.0,30717.5,18049.5,
30.167,6.004138,6.8517824,4.7502712,-0.004676655,0.0063226336,-0.0012608878,-9344.0,30973.5,18049.5,
30.284,6.0232916,6.9164252,4.6832336,-0.0014791042,0.0044573956,-0.003925513,-9856.0,30205.5,17025.5,
30.401,6.0448392,6.870936,4.7143584,-0.0010794252,0.00179276984,-0.0040587444,-8832.0,30973.5,18049.5,
30.519,6.054416,6.9260024,4.6688684,-0.0017455816,0.0003272295,-0.00339258784,-9088.0,30205.5,17281.5,
30.648,5.98259,6.87572436,4.8005496,-0.0016123354,0.0020592324,-0.0013941191,-8832.0,30205.5,17025.5,
30.766,6.004138,6.921214,4.7766076,-0.0021452606,0.0027253888,0.0024695872,-8576.0,30973.5,17793.5,
30.883,5.9993496,6.89248368,4.745483,-0.00361080468,0.0036580116,-0.000727963636,-9600.0,30205.5,16769.5,
31.003,6.052022,6.885301,4.769425,-0.0064086468,0.0067223272,-0.0020602756,-9344.0,30205.5,17281.5,
31.119,6.0089264,6.9475508,4.733512,-0.0038772672,0.0028586238,-0.00046150108,-9344.0,30717.5,17537.5,
31.242,5.989773,6.909243,4.759848,-0.0005464852,6.0766936e-05,-0.0025932006,-8832.0,30717.5,17793.5,
31.358,6.02808,6.87333,4.8125204,-0.0038772672,-7.246435e-05,-0.0029928944,-9344.0,30461.5,17537.5,
31.473,6.0113208,6.969098,4.7766076,-0.0032111108,0.0008601546,0.0018034298,-9344.0,30973.5,17281.5,
31.589,5.98259,6.8637532,4.733512,-0.00520958,-0.0015380084,-0.001793813,-9856.0,31229.5,17793.5,
31.704,6.0208976,6.858965,4.7071756,-0.00067971648,0.000460457068,0.00047111884,-9344.0,30973.5,17793.5,
31.828,5.9993496,6.902061,4.769425,-0.00014679134,0.0031250828,-0.0016605817,-9856.0,31485.5,17793.5,
31.948,6.040051,6.904455,4.7406944,-0.0012126416,-0.0020709336,-0.0012608878,-9344.0,30973.5,17281.5,
32.066,5.994561,6.8900892,4.7742132,-0.007074803,6.0766936e-05,-0.0048581316,-8832.0,31485.5,18305.5,
32.183,6.049628,6.8781184,4.7909728,-0.0045434236,-0.0016712397,0.0012705056,-9344.0,30973.5,16769.5,
32.300,6.0089264,6.9379736,4.733512,-0.0021452606,0.0043241644,-0.0013941191,-9088.0,31229.5,17025.5,
32.424,5.958648,6.91403136,4.733512,-0.0022784918,0.0009933859,-6.180722e-05,-9088.0,30973.5,17281.5,
32.540,6.0232916,6.897272,4.78379,-1.3560057e-05,-0.00313678,-0.0008611949,-9600.0,30461.5,17281.5,
32.654,6.030474,6.870936,4.6832336,-0.008140668,0.0027253888,-0.002726432,-9088.0,30717.5,17281.5,
32.769,6.037657,6.8900892,4.7023872,-0.002811417,-0.0026038588,-0.00339258784,-9600.0,30205.5,16769.5,
32.887,6.006532,6.870936,4.7766076,-0.0050763636,0.0023256988,0.002336355,-9600.0,30973.5,17281.5,
33.009,6.004138,6.9164252,4.7885784,0.0003861338,0.00179276984,-0.0013941191,-9600.0,30973.5,18049.5,
33.126,6.040051,6.91882,4.6832336,-0.0026781856,0.00019399822,0.001004043,-9856.0,30717.5,18049.5,
33.242,5.994561,6.91882,4.745483,0.0022513718,-0.0003389269,-0.004191975,-9856.0,30461.5,17537.5,
33.356,6.004138,6.91403136,4.757454,0.0017184466,-0.006600797,-0.0043252064,-8832.0,30973.5,17537.5,
33.472,6.0687816,6.7919272,4.759848,-0.0032111108,0.0025921612,-0.002326738,-8832.0,30973.5,17281.5,
33.594,6.0472336,6.8206576,4.795761,0.0011855215,-0.0060678684,-0.0016605817,-9856.0,30973.5,17281.5,
33.712,6.018503,6.835023,4.757454,-0.0026781856,0.008720797,-0.007123063,-9344.0,30973.5,17793.5,
33.827,6.085541,6.8685416,4.7502712,-0.0005464852,0.0055232496,0.0006043492,-8576.0,31485.5,17793.5,
33.943,6.0687816,6.8637532,4.6688684,-0.0038772672,0.0033915452,-0.0043252064,-9600.0,30717.5,18049.5,
34.062,6.0472336,6.87572436,4.769425,-0.0026781856,0.0019260049,-0.00046150108,-8832.0,30717.5,17793.5,
34.187,6.0592048,6.87572436,4.757454,-0.0014791042,0.0012598485,-0.0008611949,-9600.0,31229.5,18305.5,
34.304,6.049628,6.904455,4.7167524,-0.009872675,-0.00180447468,-0.0036590504,-9088.0,30717.5,17793.5,
34.423,6.07357,6.8781184,4.6449264,-1.3560057e-05,0.003924474,-0.002326738,-10112.0,30973.5,18049.5,
34.539,6.0113208,6.921214,4.7766076,-0.0032111108,0.0036580116,-0.0040587444,-9856.0,30973.5,18049.5,
34.656,6.052022,6.904455,4.7670308,-0.003344342,-0.000205695632,-0.002726432,-9344.0,30973.5,18305.5,
34.780,6.013715,6.904455,4.7047816,-0.0025449544,0.0009933859,-0.0011276575,-9088.0,30973.5,18305.5,
34.898,5.9969552,6.885301,4.7766076,-0.00081294776,0.004723858,-0.001793813,-10112.0,30461.5,17793.5,
35.014,6.0089264,6.906849,4.6688684,-0.0032111108,0.0064558648,-0.0025932006,-9856.0,31229.5,17537.5,
35.131,6.0568104,6.9164252,4.7526656,-0.0026781856,0.0016595423,-0.0019270442,-9600.0,30973.5,18561.5,
35.250,6.0352624,6.87333,4.711964,-0.0037440508,0.0012598485,-0.0012608878,-9600.0,31485.5,17537.5,
35.372,6.02808,6.91882,4.711964,-0.0045434236,0.0055232496,-0.004191975,-9600.0,30717.5,16769.5,
35.486,6.0472336,6.930791,4.7383004,-0.0062754304,-0.0026038588,0.0011372734,-9600.0,30973.5,16513.5,
35.603,6.0472336,6.89248368,4.688022,-0.0064086468,0.0003272295,-0.0016605817,-8832.0,30973.5,18305.5,
35.721,6.061599,6.91163736,4.685628,-0.002811417,-0.0019377023,-0.0037922818,-9088.0,30717.5,17281.5,
35.841,6.0592048,6.91403136,4.769425,-0.004276961,-0.0006053895,-0.0047249004,-8832.0,30973.5,18049.5,
35.964,6.0352624,6.8805128,4.7191468,0.00065259636,-0.0030035526,0.0006043492,-8320.0,31229.5,18561.5,
36.081,5.977802,6.906849,4.8268856,-0.0013458729,0.0003272295,0.0024695872,-9344.0,31485.5,18561.5,
36.197,5.977802,6.87572436,4.855616,-0.004809886,-0.0052684844,0.0011372734,-8576.0,30717.5,18049.5,
36.313,6.075964,6.85657068,4.6952048,-0.0044102072,0.0009933859,0.003268974,-9856.0,30717.5,17537.5,
36.430,5.994561,6.885301,4.699993,-0.00414373,0.0019260049,0.0011372734,-9344.0,31229.5,18817.5,
36.552,6.0089264,6.9164252,4.7383004,-0.00414373,0.0055232496,-0.0001950385,-9600.0,30717.5,17281.5,
36.668,5.968225,6.8900892,4.7622424,-0.0037440508,-0.0019377023,-0.0040587444,-9856.0,30717.5,17537.5,
36.787,6.0232916,6.8685416,4.733512,-0.0053428112,0.00059369208,-0.0025932006,-9600.0,31229.5,18049.5,
36.904,5.980196,6.8996664,4.807732,-0.0017455816,0.005656477,0.00087081176,-10368.0,31229.5,18049.5,
37.020,5.958648,6.91403136,4.711964,-0.0013458729,-0.0012715459,-0.0036590504,-9856.0,30973.5,18817.5,
37.143,6.025686,6.8685416,4.7383004,-0.0020120292,0.00179276984,-0.0024599694,-10112.0,31229.5,18305.5,
37.262,6.030474,6.894878,4.757454,-0.00720804936,0.0036580116,0.0012705056,-9344.0,30717.5,17793.5,
37.378,5.9969552,6.9379736,4.721541,-0.0050763636,-0.0014047772,-0.0011276575,-9344.0,30461.5,17793.5,
37.495,6.042445,6.8805128,4.759848,-0.004809886,0.0011266135,-0.0065901376,-9600.0,30973.5,17793.5,
37.611,5.956254,6.904455,4.843645,-1.3560057e-05,0.004723858,-0.002726432,-9856.0,30717.5,18049.5,
37.734,5.968225,6.8900892,4.7885784,-0.008007437,0.0063226336,0.0020698932,-9856.0,30973.5,17281.5,
37.850,5.970619,6.870936,4.7790016,-0.006675124,0.006056171,-0.0008611949,-9344.0,31485.5,18049.5,
37.964,6.025686,6.91403136,4.795761,-0.0057424904,0.0012598485,0.00193666116,-9856.0,30973.5,17793.5,
38.083,6.07357,6.870936,4.7383004,-0.002411738,0.0016595423,-0.0021935068,-9856.0,31229.5,18305.5,
38.198,6.037657,6.902061,4.7191468,-0.010938525,0.004723858,-0.0064569064,-9088.0,31485.5,17793.5,
38.316,6.018503,6.8876952,4.697599,-0.0040104984,0.0055232496,-0.0031261258,-9856.0,30973.5,17281.5,
38.454,6.02808,6.906849,4.7526656,-0.0050763636,-0.0030035526,0.0012705056,-9856.0,30717.5,17281.5,
38.570,6.0208976,6.904455,4.7742132,-0.0016123354,0.0036580116,0.00087081176,-9600.0,30717.5,17793.5,
38.689,6.052022,6.921214,4.6784452,-0.00094617908,-0.0039361716,-0.000727963636,-9856.0,30717.5,17537.5,
38.806,6.063993,6.8781184,4.8005496,-0.0020120292,-0.0030035526,-0.0019270442,-9856.0,30717.5,18049.5,
38.924,5.9993496,6.904455,4.7766076,-0.00081294776,0.003791239,0.0024695872,-9600.0,30973.5,18561.5,
39.048,6.0328684,6.885301,4.7023872,-0.006142199,0.0040577016,-0.0040587444,-8832.0,31485.5,17793.5,
39.164,6.0113208,6.8996664,4.7287236,-0.0010794252,-0.0004721582,-0.0013941191,-9088.0,30973.5,17793.5,
39.282,6.018503,6.8900892,4.7167524,-0.0014791042,-0.0019377023,-0.004458438,-9600.0,31485.5,17537.5,
39.400,5.95386,6.9283968,4.7550596,-0.001878798,-0.000871852064,0.0006043492,-10112.0,30973.5,18049.5,
39.516,6.0089264,6.861359,4.7766076,-0.0013458729,-0.004602328,0.002336355,-9088.0,30973.5,18561.5,
39.638,5.992167,6.897272,4.9058944,-0.0038772672,0.0033915452,-0.001793813,-9088.0,30205.5,16769.5,
39.754,5.994561,6.870936,4.8005496,-0.003344342,0.0016595423,-0.0019270442,-9600.0,31229.5,17281.5,
39.870,6.004138,6.9283968,4.7885784,-0.00520958,0.0064558648,0.0020698932,-9600.0,30973.5,17793.5,
39.985,6.052022,6.91882,4.747877,-1.3560057e-05,-0.0012715459,-0.0012608878,-9088.0,30717.5,17281.5,
40.101,6.063993,6.8781184,4.7430888,-0.0016123354,0.00179276984,-0.0011276575,-9088.0,30973.5,17793.5,
40.225,6.0472336,6.897272,4.7071756,-0.004676655,0.003791239,-0.0013941191,-9600.0,31229.5,18305.5,
40.341,6.0951176,6.8637532,4.769425,0.0021181404,0.0008601546,-0.0009944253,-9088.0,31229.5,17793.5,
40.458,6.0568104,6.882907,4.721541,-0.0062754304,0.0041909368,-0.0025932006,-9344.0,31229.5,19073.5,
40.575,6.004138,6.91882,4.721541,-0.006142199,0.006189406,-0.000727963636,-9856.0,31229.5,17281.5,
40.690,6.018503,6.8900892,4.747877,-0.00720804936,0.003791239,-0.0028596632,-10112.0,31485.5,17793.5,
40.812,6.066387,6.8876952,4.7311176,-0.002811417,0.005123552,0.0016701994,-10112.0,30973.5,17793.5,
40.928,6.040051,6.91163736,4.685628,-0.0016123354,0.0023256988,0.00087081176,-9856.0,31741.5,19073.5,
41.046,5.98259,6.858965,4.7742132,-0.00014679134,-0.0004721582,-0.00339258784,-9344.0,30973.5,18305.5,
41.162,5.989773,6.902061,4.817309,-0.0013458729,0.004857093,-0.006190444,-9600.0,31229.5,17537.5,
41.278,5.994561,6.954733,4.759848,-0.0020120292,0.0013930798,0.0014037369,-9344.0,31229.5,18049.5,
41.400,5.9849844,6.9379736,4.7430888,-0.00014679134,-0.000871852064,0.0012705056,-9856.0,30717.5,17793.5,
41.519,5.9993496,6.92360836,4.7622424,-0.008007437,0.0003272295,0.00047111884,-9344.0,31229.5,18817.5,
41.637,6.001744,6.8661475,4.8101264,0.0005193651,0.0013930798,-6.180722e-05,-9600.0,31229.5,18049.5,
41.754,6.013715,6.87333,4.7550596,0.0027842968,0.0023256988,-0.0028596632,-9856.0,30973.5,17793.5,
41.875,6.016109,6.870936,4.78379,-0.001878798,0.001526311,7.142406e-05,-9088.0,30973.5,18049.5,
41.994,6.006532,6.9283968,4.8220972,-0.0004132688,0.00059369208,0.0012705056,-10624.0,30973.5,17793.5,
42.111,6.006532,6.909243,4.8125204,0.0002528876,0.0016595423,-0.000727963636,-9088.0,31485.5,17537.5,
42.228,6.037657,7.016982,4.676051,-0.007474512,0.0059229432,-0.0028596632,-9344.0,31485.5,17281.5,
42.343,6.013715,6.909243,4.7143584,-0.0057424904,-0.0006053895,0.0027360496,-9600.0,31485.5,17281.5,
42.459,6.07357,6.846994,4.721541,0.00464952,-0.0004721582,0.0040683616,-9344.0,31229.5,17537.5,
42.578,5.8796396,6.969098,4.676051,0.015840962,-0.015394058,-0.0024599694,-9600.0,30717.5,16513.5,
42.694,5.724016,7.08401968,4.604225,-0.0030778944,-0.022055618,0.002336355,-8832.0,30717.5,16513.5,
42.810,5.8533032,7.14148036,4.7143584,0.00065259636,-0.02019038,0.004334824,-9088.0,30973.5,16257.5,
42.927,5.9394948,6.727284,4.723935,0.0067812352,-0.03164827,-0.009920919,-8576.0,31485.5,16001.5,
43.042,6.2028564,6.909243,4.5347932,-0.003344342,-0.0070004872,-0.0036590504,-8576.0,30717.5,16257.5,
43.164,6.1334248,6.77995636,4.688022,-0.0016123354,0.0021924674,-0.008455375,-9088.0,30973.5,16769.5,
43.281,6.0951176,6.9834632,4.6473208,-0.00414373,0.0067223272,0.0015369672,-8576.0,30717.5,17025.5,
43.398,6.138213,6.85657068,4.6568976,0.0005193651,0.003924474,-0.0036590504,-7040.0,30717.5,15745.5,
43.515,5.9969552,6.9738868,4.661686,0.00065259636,-0.0043358652,0.0014037369,-7552.0,31229.5,16513.5,
43.632,6.040051,6.9403677,4.711964,-0.0038772672,0.0045906304,0.0035354364,-9600.0,30717.5,16257.5,
43.756,6.0807524,6.8996664,4.616196,-0.007607743,0.0055232496,-6.180722e-05,-9088.0,30717.5,15745.5,
43.872,6.1046944,6.9954344,4.6353496,-0.004676655,-0.0003389269,0.00047111884,-9344.0,30717.5,15745.5,
43.989,6.121454,6.8326284,4.757454,-0.0040104984,0.006189406,-0.0016605817,-8576.0,30461.5,16769.5,
44.105,6.28426,7.076837,4.369593,-0.0153351568,0.046292008,-0.021378804,-9344.0,30973.5,16001.5,
44.221,5.5492396,7.062472,4.7646364,-0.027325972,0.043893844,-0.00698983136,-9088.0,31229.5,16513.5,
44.345,5.800631,6.9379736,4.8604044,0.00371691568,-0.0051352492,-0.0011276575,-9600.0,31229.5,17537.5,
44.464,5.9969552,6.8637532,4.8244916,-0.007474512,0.0021924674,-0.004458438,-9856.0,31485.5,17537.5,
44.581,5.994561,6.8781184,4.7311176,0.00185167792,-0.00380293668,-0.0015273513,-10368.0,30717.5,17537.5,
44.701,5.9754076,6.894878,4.7622424,-0.0026781856,0.0013930798,-0.0009944253,-9600.0,31229.5,17025.5,
44.818,5.9754076,6.8661475,4.757454,-0.008940056,0.00698879,-0.00339258784,-9856.0,30973.5,16257.5,
44.941,6.0352624,6.89248368,4.759848,-0.00774095936,0.008987259,-0.0037922818,-9344.0,30717.5,17793.5,
45.061,6.006532,6.8781184,4.78379,-0.0026781856,0.0009933859,-0.005524288,-9856.0,31229.5,17025.5,
45.176,5.970619,6.87333,4.8268856,-0.003344342,0.0025921612,0.0011372734,-9600.0,31229.5,17793.5,
45.291,5.977802,6.837417,4.7909728,-0.0022784918,0.004857093,-0.0016605817,-9600.0,31741.5,17281.5,
45.408,6.0352624,6.966704,4.7406944,-0.0062754304,0.0053900144,-0.0012608878,-10112.0,31229.5,17281.5,
45.531,6.013715,6.92360836,4.82928,-0.0021452606,0.008454334,-0.0001950385,-9600.0,30973.5,16001.5,
45.647,5.944283,6.9283968,4.747877,-0.009606212,0.008454334,-0.005923982,-10112.0,30973.5,17281.5,
45.761,5.944283,6.8805128,4.9035,-0.0082739,0.010452803,7.142406e-05,-9088.0,30973.5,17793.5,
45.875,5.989773,6.8661475,4.831674,-0.010005906,0.0077881776,-0.0029928944,-8832.0,30973.5,17537.5,
45.993,6.0711756,6.849388,4.6568976,-0.010272369,0.008720797,-0.0057907504,-9600.0,30717.5,17537.5,
46.110,5.994561,6.75362,4.8819524,-0.016400992,0.008720797,-0.0053910568,-10368.0,30205.5,17537.5,
46.231,5.9514656,6.978675,4.697599,-0.0026781856,-0.0015380084,-0.0019270442,-10368.0,30717.5,17793.5,
46.348,5.872457,6.85417636,4.795761,-0.024128408,-0.014727902,-0.0104538432,-10368.0,30717.5,18817.5,
46.466,6.0927232,6.942762,4.5467644,-0.01613453,0.0561511136,-0.0036590504,-9856.0,30973.5,17793.5,
46.583,6.049628,6.8805128,4.793367,-0.073157508,0.12663044,0.0050009796,-9344.0,31229.5,18305.5,
46.699,5.664161,6.6554576,5.063912,-0.14163838,0.17432722,-0.023377274,-10880.0,31485.5,21377.5,
46.821,5.5707876,6.1933764,5.705558,-0.030789972,0.041762144,0.00779883636,-13696.0,31741.5,25473.5,
46.939,5.7958428,6.4854692,5.339245,0.03622535,-0.067887168,-0.0089883,-13696.0,32509.5,25729.5,
47.054,5.7383816,6.4854692,4.8604044,0.016507119,-0.06682132,-0.0064569064,-12928.0,32253.5,24705.5,
47.172,5.932312,6.741649,5.1908044,-0.004276961,-0.036844284,-0.0019270442,-12160.0,31997.5,23681.5,
47.287,5.917947,6.954733,4.980115,0.007980302,-0.028317488,-0.009787688,-12416.0,31997.5,22657.5,
47.407,5.9011876,6.763197,5.0687004,-0.011338219,0.01218481,-0.005524288,-11648.0,31229.5,22401.5,
47.523,5.905976,6.7488316,4.9992684,0.0021181404,-0.05816128,-0.01644925,-11904.0,31741.5,22145.5,
47.640,6.02808,6.9164252,4.9226536,0.019038498,-0.07334965,-0.002326738,-12416.0,30973.5,22145.5,
47.755,5.8413324,6.801504,4.9178652,-0.012004375,-0.025786094,-0.0175151,-11904.0,31485.5,20097.5,
47.871,5.7958428,6.894878,5.0495468,0.0069144664,-0.113985168,-0.009654457,-11136.0,31485.5,19841.5,
47.994,5.757535,6.945156,4.8939232,-0.01506868,-0.14476159,-0.039498256,-10112.0,31229.5,17537.5,
48.109,6.262712,6.8206576,4.7742132,-0.00774095936,-0.03737721,-0.0005947314,-9344.0,30717.5,16513.5,
48.225,6.384816,7.2300664,4.831674,-0.00347757336,-0.13450278,-0.035234852,-8064.0,30461.5,13953.5,
48.342,6.406364,7.3162576,4.963355,0.005582154,-0.13703418,-0.018980642,-8064.0,30205.5,12417.5,
48.457,6.344115,6.885301,4.3624104,0.0054489224,-0.051366492,-0.0060572124,-6272.0,30205.5,11649.5,
48.580,6.114271,6.698553,4.6688684,-0.0016123354,0.059082208,-0.0089883,-6784.0,30205.5,11137.5,
48.695,6.260318,6.858965,4.4222656,0.017839432,-0.014328208,0.013527778,-7040.0,29949.5,11905.5,
48.811,5.8269672,6.846994,4.759848,-0.006675124,0.005123552,-0.010853537,-6016.0,30717.5,11905.5,
48.926,6.2363752,6.94994436,4.6066192,-0.00414373,0.045892312,-0.005124594,-6784.0,29949.5,11393.5,
49.043,6.2124332,6.933185,4.5826776,-0.0062754304,0.034434428,0.0015369672,-7296.0,30461.5,13185.5,
49.165,6.150184,6.8278402,4.7047816,0.00464952,0.01857991,0.008598224,-7808.0,30461.5,12673.5,
49.281,6.1789144,6.84459968,4.575495,-0.013203457,0.04136245,0.0020698932,-7552.0,30717.5,12673.5,
49.398,6.1789144,6.81826368,4.551553,-0.008673593,0.08372998,0.016059176,-7552.0,30717.5,13185.5,
49.515,5.944283,7.1965475,4.7167524,-0.043047264,0.12143443,-0.003259357,-8832.0,30973.5,14977.5,
49.633,5.6090948,6.6171504,4.9992684,-0.048509732,0.098518652,0.0030025114,-9856.0,31229.5,17281.5,
49.750,5.8269672,6.696159,5.0734888,0.011044636,-0.020590074,-0.0036590504,-10112.0,31741.5,17281.5,
49.873,6.1789144,7.0121932,4.7909728,-0.013070211,0.010852497,-0.0013941191,-10368.0,31229.5,17537.5,
49.992,5.944283,6.763197,4.877164,-0.009872675,0.01111896,-6.180722e-05,-9856.0,31485.5,18305.5,
50.105,6.0687816,6.8685416,4.8723756,-0.012404054,0.034167964,0.004334824,-10624.0,31485.5,17025.5,
50.222,6.2244044,7.11514436,4.3887468,-0.060766996,0.037765204,0.012595161,-9856.0,31741.5,17793.5,
50.341,5.434318,6.8038984,5.0830656,0.02436775,-0.006600797,0.01912349,-10112.0,32509.5,19329.5,
50.461,5.941889,6.5956024,5.162074,0.050614312,-0.040175064,0.014327167,-10368.0,32765.5,20353.5,
50.579,6.0352624,6.7919272,4.8747696,0.027964994,-0.022988238,0.007399141,-10112.0,31997.5,19329.5,
50.696,5.8892164,6.8781184,4.9465956,-0.021996722,0.019645758,-0.00752275664,-10112.0,31997.5,17793.5,
50.815,5.989773,6.729678,4.9322304,0.00518246,-0.0060678684,-0.0008611949,-10112.0,32509.5,18817.5,
50.930,5.910764,6.751226,4.9465956,-0.01666747,0.009919878,-0.0052578252,-10368.0,31997.5,20097.5,
51.050,6.2244044,6.686582,4.9657492,-0.02905798,0.031103644,-0.018181256,-10624.0,32509.5,18817.5,
51.166,5.676132,6.87333,5.054335,0.000919044,-0.009265419,0.0027360496,-10112.0,32253.5,20353.5,
51.280,5.95386,6.84459968,4.951384,-0.0020120292,0.0041909368,-0.0037922818,-10368.0,31997.5,20353.5,
51.398,5.874851,6.8326284,4.9872976,-1.3560057e-05,-0.004069403,0.0015369672,-10880.0,31741.5,19073.5,
51.515,5.8413324,6.648275,5.138132,0.0026510656,-0.00939865,0.008331762,-10624.0,32253.5,19329.5,
51.635,5.7383816,7.040924,4.699993,0.018105894,-0.0032700152,0.005134211,-10368.0,31485.5,19585.5,
51.751,6.001744,6.672217,5.027999,-0.017999784,0.019246066,-0.006190444,-11136.0,31229.5,18305.5,
51.865,6.018503,6.741649,5.004057,0.02490069,-0.02005715,0.00020465534,-9856.0,31997.5,19841.5,
51.980,5.9394948,6.8038984,5.0256048,-0.014402524,0.018046982,-0.0012608878,-10624.0,31741.5,19585.5,
52.097,5.977802,6.777562,4.915471,0.009712324,-0.007799879,0.00193666116,-10112.0,32509.5,18817.5,
52.221,5.922735,6.729678,5.0375756,-0.0082739,0.005656477,-0.0013941191,-10624.0,32765.5,18049.5,
52.336,6.006532,6.7943216,4.891529,-0.002811417,-0.012995895,-0.004458438,-10112.0,32253.5,19073.5,
52.451,5.9490716,6.7105244,5.0088452,-0.00028002262,0.000460457068,-0.0043252064,-10624.0,32509.5,19073.5,
52.570,5.9730132,6.8038984,4.9178652,-0.007474512,0.0040577016,-0.0020602756,-10368.0,32765.5,18305.5,
52.687,5.922735,6.801504,4.970538,-0.0010794252,-0.0019377023,-0.0040587444,-10112.0,31997.5,19329.5,
52.810,6.0113208,6.81826368,4.9082884,-0.0013458729,0.000460457068,-0.000727963636,-9856.0,31997.5,18817.5,
52.931,5.910764,6.80868668,4.9346248,-0.0032111108,0.004723858,-0.0043252064,-10624.0,31741.5,19073.5,
53.048,5.932312,6.76080236,4.9657492,-0.009739429,0.0036580116,-0.0028596632,-10880.0,31997.5,19841.5,
53.165,5.858092,6.8038984,5.030393,0.0045163036,-0.005668178,0.0012705056,-10368.0,31997.5,20097.5,
53.287,5.905976,6.7943216,4.9442016,-0.007474512,0.003791239,-0.0063236756,-9856.0,31741.5,19073.5,
53.408,5.9730132,6.77995636,4.877164,0.000119671224,-0.0070004872,7.142406e-05,-10112.0,32253.5,19329.5,
53.527,5.898793,6.79671536,5.0136336,-0.010538831,0.0025921612,0.00087081176,-10112.0,32509.5,19841.5,
53.645,5.980196,6.789533,4.963355,0.005582154,-0.012729432,-0.0025932006,-10368.0,32253.5,19073.5,
53.760,6.1406072,6.715313,4.8867408,-0.002411738,0.0025921612,0.00020465534,-9856.0,32765.5,19841.5,
53.877,5.977802,6.741649,4.963355,-0.0004132688,-0.00180447468,0.0039351304,-9600.0,32253.5,19585.5,
53.999,6.0711756,6.8206576,4.9106828,-0.009739429,0.0152491268,-0.0024599694,-9856.0,32253.5,18817.5,
54.118,5.9275236,6.7368608,4.992086,-0.0010794252,0.0008601546,-0.0028596632,-9856.0,32253.5,18817.5,
54.234,5.9490716,6.7823508,5.042364,0.00185167792,0.0067223272,0.0014037369,-9088.0,32253.5,19073.5,
54.353,5.872457,6.6458808,5.1333436,0.0022513718,0.0067223272,-0.0053910568,-9344.0,31997.5,19073.5,
54.470,6.159761,6.7727736,4.9537784,-0.012270838,0.007122021,0.00073758052,-8832.0,32509.5,19073.5,
54.592,5.9394948,6.7943216,5.0016628,-0.0044102072,0.009253722,-6.180722e-05,-10368.0,31997.5,19329.5,
54.709,5.917947,6.787139,4.99448,-0.007874206,0.0055232496,-0.004191975,-10112.0,31485.5,20353.5,
54.823,5.965831,6.81826368,4.9322304,-0.006675124,0.0021924674,-0.00046150108,-9600.0,31741.5,19585.5,
54.940,5.8772452,6.801504,5.0112396,-0.00347757336,0.006589096,-0.0011276575,-9856.0,31485.5,19329.5,
55.057,5.898793,6.79671536,4.9872976,-0.0037440508,0.003924474,-0.0024599694,-9088.0,31741.5,20097.5,
55.180,5.920341,6.8422056,4.94899,-0.0054760424,0.0003272295,0.0020698932,-10112.0,31229.5,19329.5,
55.295,5.9969552,6.8661475,4.8963176,-0.001878798,0.0076549464,-0.0009944253,-9600.0,31997.5,19329.5,
55.413,5.9610424,6.75362,5.016028,-0.00520958,0.001526311,-0.0043252064,-10368.0,31741.5,20097.5,
55.527,5.992167,6.81826368,4.982509,-0.0030778944,0.0045906304,0.00193666116,-10112.0,31741.5,19329.5,
55.646,6.001744,6.80629236,4.8867408,-1.3560057e-05,-0.004602328,-0.0025932006,-10624.0,31741.5,19329.5,
55.770,5.968225,6.7727736,4.951384,-0.0040104984,0.0041909368,-0.0031261258,-10368.0,31741.5,19073.5,
55.886,5.894005,6.775168,4.992086,-0.005609274,0.0033915452,-0.0011276575,-9600.0,31741.5,19329.5,
56.001,5.9754076,6.79671536,5.0016628,-0.0021452606,0.004857093,0.0018034298,-10880.0,31229.5,19585.5,
56.120,5.989773,6.80868668,4.9106828,0.006647989,-0.023121468,0.0031357436,-9600.0,32253.5,19329.5,
56.237,5.9610424,6.789533,4.913077,-0.018266246,0.019379298,-0.0072562936,-9344.0,31997.5,18561.5,
56.359,5.956254,6.80868668,4.879558,0.004249841,-0.0048687904,0.0015369672,-9344.0,31997.5,19073.5,
56.476,5.848515,6.80868668,4.9561724,-0.0029446482,0.00179276984,-0.0008611949,-8832.0,31485.5,18305.5,
56.595,5.8916108,6.7368608,5.054335,-0.00361080468,0.0035247804,-0.003259357,-9600.0,31741.5,19585.5,
56.714,5.9394948,6.7440432,4.9298364,0.0015852153,0.001526311,0.0034022052,-10112.0,31741.5,18817.5,
56.831,5.9873784,6.8661475,4.8149148,-0.00933975,-0.016459908,-0.0012608878,-9856.0,31997.5,19073.5,
56.955,5.920341,6.76798536,4.970538,0.002384603,-0.0023373962,-0.0019270442,-9344.0,31997.5,19841.5,
57.072,5.8772452,6.77995636,4.992086,0.010112017,-0.021389462,-0.0011276575,-8576.0,31997.5,18305.5,
57.190,5.9993496,6.6219388,4.855616,0.024500996,-0.06002652,7.142406e-05,-9088.0,31741.5,16769.5,
57.305,6.2291928,6.91163736,4.735906,-0.020531178,0.017514058,-0.0053910568,-8576.0,31997.5,16513.5,
57.423,5.934706,6.835023,4.982509,-0.0005464852,-0.004069403,0.004201592,-8320.0,31741.5,17537.5,
57.537,5.977802,6.81586936,4.8987116,-0.0092065184,0.0035247804,-0.0040587444,-8832.0,31485.5,17537.5,
57.662,5.95386,6.84459968,4.9322304,-0.008806825,0.005123552,-0.003925513,-7808.0,31741.5,17281.5,
57.777,5.994561,6.72249536,4.8460392,-0.0057424904,0.005123552,-0.0013941191,-8064.0,31229.5,17537.5,
57.895,6.016109,6.825446,4.9346248,-0.00347757336,-0.0059346408,-0.003259357,-9600.0,31229.5,17793.5,
58.011,5.956254,6.729678,4.9058944,0.0003861338,0.00072692332,0.0014037369,-9344.0,30973.5,18305.5,
58.127,6.0687816,6.751226,4.879558,-0.008806825,0.008587565,-0.00752275664,-9088.0,31229.5,17537.5,
58.249,6.085541,6.765591,4.853222,-0.0013458729,0.006189406,0.0011372734,-8832.0,31997.5,18561.5,
58.364,6.030474,6.775168,4.8867408,-0.004809886,-0.000205695632,7.142406e-05,-8576.0,31229.5,17793.5,
58.480,6.07357,6.8326284,4.8340684,-0.0073412808,0.010719266,0.0020698932,-8832.0,31485.5,18561.5,
58.596,5.917947,6.811081,4.937019,0.0022513718,-0.00766664368,0.00193666116,-9600.0,31485.5,18305.5,
58.714,5.965831,6.811081,4.865193,-0.00067971648,0.001526311,0.0050009796,-9856.0,31741.5,18049.5,
58.836,5.994561,6.84459968,4.8939232,-0.00414373,0.00179276984,0.0020698932,-9088.0,31229.5,18049.5,
58.953,6.006532,6.89248368,4.8604044,-0.012137607,0.010053109,-0.0021935068,-10112.0,31741.5,18561.5,
59.071,5.894005,6.8398116,4.963355,0.00358368436,0.0011266135,0.0026028176,-9088.0,30973.5,18817.5,
59.189,6.1023,6.835023,4.7790016,-0.005609274,0.0057897084,-0.000727963636,-9856.0,31229.5,18305.5,
59.305,5.968225,6.837417,4.8508276,-0.00028002262,-0.0063343348,0.00020465534,-9344.0,31229.5,18049.5,
59.428,6.042445,6.801504,4.9657492,-0.0029446482,0.0020592324,0.000337886632,-9856.0,31485.5,17793.5,
59.545,6.054416,6.8206576,4.7526656,-0.0058757364,0.006589096,-0.0048581316,-9344.0,31485.5,17281.5,
59.661,6.0328684,6.861359,4.843645,-0.0016123354,-0.00380293668,-0.0011276575,-9856.0,31485.5,18561.5,
59.779,5.95386,6.789533,4.9082884,-0.00520958,0.00072692332,-0.001793813,-9600.0,31485.5,18561.5,
59.892,6.025686,6.8326284,4.8244916,-0.0026781856,0.003924474,-0.004191975,-8576.0,31741.5,19073.5,
60.013,6.0208976,6.8326284,4.9106828,0.0010522902,-0.0011383183,0.00193666116,-8064.0,32253.5,18305.5,
60.132,6.052022,6.837417,4.8867408,0.0003861338,0.0029918552,-0.0015273513,-8832.0,31997.5,19073.5,
60.248,5.9873784,6.8302344,4.771819,-0.0014791042,0.00072692332,0.00073758052,-9088.0,31485.5,18049.5,
60.365,5.977802,6.7847448,4.877164,-0.005609274,0.00179276984,0.00047111884,-9088.0,32509.5,19073.5,
60.482,6.049628,6.8326284,4.8484336,-0.0060089676,0.00698879,-0.0015273513,-8832.0,31485.5,19073.5,
60.603,5.992167,6.79911,4.807732,0.00065259636,0.0029918552,0.0016701994,-9088.0,31741.5,18561.5,
60.718,5.9610424,6.739255,4.913077,-0.0030778944,-0.0003389269,-0.0011276575,-9088.0,31485.5,19329.5,
60.834,6.0208976,6.8326284,4.9322304,-0.0049431176,0.008187875,-0.0037922818,-9088.0,31741.5,18305.5,
60.953,6.037657,6.7847448,4.891529,0.0021181404,0.0013930798,-0.003259357,-8832.0,31997.5,18049.5,
61.069,6.0352624,6.8637532,4.8699812,-0.00774095936,0.0059229432,-0.0037922818,-9600.0,31485.5,19073.5,
61.197,6.0089264,6.91882,4.831674,-0.0060089676,-7.246435e-05,-0.001793813,-9088.0,31485.5,18817.5,
61.311,6.013715,6.7727736,4.841251,-0.004276961,-0.0012715459,-0.0011276575,-9344.0,31741.5,18561.5,
61.428,6.324961,6.8805128,3.63936184,-0.025194258,0.04549262,-0.01112,-9088.0,31741.5,19073.5,
61.544,5.671344,6.945156,4.8963176,0.012909874,-0.0072669532,0.009930537,-8576.0,31741.5,19329.5,
61.659,6.040051,6.8876952,4.8149148,-0.01506868,0.01444974,-0.0001950385,-9600.0,31229.5,19073.5,
61.779,6.006532,6.79911,4.9346248,0.009179398,-0.011530351,0.005134211,-9856.0,31741.5,17793.5,
61.893,5.980196,6.825446,4.8867408,-0.007074803,0.010452803,-0.0057907504,-9344.0,31997.5,17793.5,
62.009,5.970619,6.9164252,4.831674,-0.00067971648,0.0027253888,0.0026028176,-10112.0,31485.5,18305.5,
62.125,5.9011876,6.8685416,4.879558,-0.0064086468,0.008587565,0.00073758052,-9344.0,31485.5,17793.5,
62.241,5.994561,6.837417,4.8963176,-0.0049431176,0.004857093,-0.007789219,-9344.0,31229.5,18305.5,
62.362,5.9754076,6.7943216,4.9178652,-0.0058757364,0.004857093,-0.0011276575,-9600.0,31229.5,17281.5,
62.479,6.0089264,6.77995636,4.9896916,-0.00028002262,-0.000205695632,-0.003259357,-9600.0,30973.5,18049.5,
62.598,5.956254,6.85417636,4.8723756,-0.006142199,6.0766936e-05,-0.0031261258,-9600.0,31741.5,19329.5,
62.716,5.910764,6.777562,4.9681436,-0.0016123354,0.00179276984,-0.0015273513,-9600.0,31485.5,18817.5,
62.834,6.02808,6.76080236,4.927442,-0.00028002262,0.0020592324,-0.0012608878,-9344.0,30973.5,18561.5,
62.957,6.018503,6.84459968,4.9058944,-0.002411738,0.000460457068,-0.0009944253,-10368.0,31485.5,17793.5,
63.076,6.0352624,6.81586936,4.8819524,-0.00414373,0.0036580116,-0.0001950385,-9088.0,30973.5,18561.5,
63.192,5.860486,6.8661475,4.8268856,0.0039833636,0.0036580116,0.00047111884,-9088.0,31485.5,18049.5,
63.311,5.922735,6.8661475,4.937019,0.0013187528,0.00019399822,0.0016701994,-9088.0,31997.5,17025.5,
63.429,5.9394948,6.77037936,4.9849032,-0.0053428112,0.0020592324,-0.0025932006,-9088.0,31741.5,18049.5,
63.553,5.929918,6.8398116,4.8747696,-0.0050763636,0.0059229432,-0.0025932006,-9856.0,31229.5,18049.5,
63.670,5.958648,6.870936,4.7383004,-0.009606212,0.008454334,-0.0016605817,-9600.0,31229.5,18561.5,
63.785,5.9514656,6.89248368,4.8939232,-0.00414373,0.003924474,0.00073758052,-9600.0,31229.5,18561.5,
63.901,6.02808,6.825446,4.879558,-0.007074803,0.006056171,-0.00046150108,-9088.0,31741.5,18049.5,
64.015,5.989773,6.81586936,4.8819524,-0.0037440508,0.00805464,0.000337886632,-8832.0,31229.5,18561.5,
64.138,5.707257,6.837417,4.8460392,-0.0005464852,-0.0003389269,-0.0012608878,-8576.0,31485.5,18817.5,
64.254,5.8796396,7.005011,4.807732,-0.0044102072,0.0059229432,-0.0035258192,-8576.0,32253.5,17281.5,
64.370,5.98259,6.741649,4.9442016,-0.002411738,0.000460457068,-0.0025932006,-9600.0,31741.5,18305.5,
64.486,6.0448392,6.8278402,4.8484336,0.000919044,0.0059229432,-0.0025932006,-9856.0,31485.5,18305.5,
64.604,6.054416,6.7847448,4.8268856,-0.001878798,0.0021924674,-0.0011276575,-9088.0,31741.5,18817.5,
64.727,5.910764,6.835023,4.9082884,0.0011855215,0.0009933859,0.0018034298,-8320.0,31741.5,17537.5,
64.849,6.1070884,6.729678,4.8699812,0.0011855215,-0.0026038588,-0.0008611949,-9088.0,32509.5,18049.5,
64.966,5.9251292,6.8398116,4.9058944,0.007180929,-0.012729432,-0.0025932006,-8832.0,30973.5,18817.5,
65.082,5.812602,6.8326284,4.9753264,-0.019198864,0.021111302,0.015792708,-9344.0,31485.5,18305.5,
65.198,6.310596,6.882907,4.8340684,-0.0057424904,0.011918347,-0.0040587444,-8576.0,32509.5,18561.5,
65.315,6.0927232,6.885301,4.8268856,-0.00094617908,-0.00313678,-0.0036590504,-9600.0,32253.5,18817.5,
65.436,6.061599,6.846994,4.8364624,-0.00014679134,-0.0015380084,0.0014037369,-9088.0,31741.5,19329.5,
65.553,6.0568104,6.8900892,5.016028,0.0027842968,0.0008601546,0.002336355,-10112.0,31997.5,18049.5,
65.669,6.025686,6.8517824,4.7526656,0.000919044,0.0033915452,0.0012705056,-8832.0,32253.5,18561.5,
65.785,6.0232916,6.846994,4.7670308,0.0005193651,-0.0004721582,0.0014037369,-9856.0,32253.5,19073.5,
65.901,5.977802,6.8637532,4.937019,0.004782766,-0.008199573,-0.0013941191,-9600.0,31997.5,18305.5,
66.023,5.920341,6.897272,4.805338,0.000119671224,0.0013930798,-0.0001950385,-9856.0,31997.5,18049.5,
66.140,5.98259,6.897272,4.8939232,0.0013187528,0.0025921612,0.006599755,-9856.0,32509.5,17793.5,
66.255,5.970619,6.89248368,4.8843464,-0.012803763,0.028172558,0.0014037369,-9088.0,32253.5,19073.5,
66.373,5.860486,6.6817936,5.0806712,-0.011204988,0.006589096,-0.0009944253,-10112.0,32253.5,18561.5,
66.489,6.07357,6.85417636,4.8364624,-0.010805294,0.0045906304,-0.003259357,-9600.0,32509.5,19841.5,
66.612,5.917947,6.9403677,4.8604044,-0.0050763636,-0.000205695632,0.00047111884,-9344.0,31229.5,18305.5,
66.732,5.846121,7.0121932,4.9082884,-0.00081294776,-0.0026038588,0.0026028176,-9344.0,31741.5,18305.5,
66.849,6.1908856,6.7488316,4.723935,-0.0054760424,0.014849434,-0.0063236756,-9344.0,32253.5,18049.5,
66.968,6.0328684,6.902061,4.853222,-0.0032111108,0.0044573956,-0.0060572124,-9600.0,32509.5,18817.5,
67.086,5.8652744,6.8900892,4.9202596,-0.00414373,0.006056171,-0.001793813,-9856.0,32509.5,18049.5,
67.207,5.9754076,6.8637532,4.817309,-0.014935464,0.017780522,-0.0019270442,-10112.0,31997.5,18049.5,
67.326,5.625854,6.7105244,5.0256048,-0.013203457,0.0016595423,-0.0037922818,-9856.0,32509.5,18561.5,
67.445,5.9155524,6.9260024,4.7502712,-0.007874206,0.012451272,-0.0015273513,-10624.0,32253.5,19585.5,
67.562,5.944283,6.85657068,4.9058944,-0.00720804936,0.010985728,-0.01005415,-10368.0,32509.5,19073.5,
67.680,5.9131584,6.81826368,4.9035,-0.0060089676,0.01338389,-0.004458438,-10112.0,32253.5,18561.5,
67.801,6.14779,7.00979936,4.7766076,0.0058486164,0.00019399822,0.0027360496,-9088.0,32253.5,19329.5,
67.919,6.2698948,6.7943216,4.7981552,0.010245249,0.0064558648,0.003268974,-9600.0,32509.5,19329.5,
68.036,6.042445,6.8661475,4.8101264,-0.003344342,0.018979602,0.0006043492,-9088.0,31997.5,19329.5,
68.153,6.001744,6.823052,4.982509,0.0053156764,-0.012995895,0.003268974,-9088.0,32253.5,19073.5,
68.268,6.0208976,6.9355792,4.925048,-0.0044102072,0.007921409,-0.0020602756,-9600.0,32253.5,19329.5,
68.391,5.9371004,6.8302344,4.867587,-0.0040104984,-0.0011383183,0.00047111884,-10112.0,32765.5,20353.5,
68.508,6.037657,6.81586936,4.915471,-0.00014679134,0.0033915452,-0.0008611949,-9600.0,-32514.5,18817.5,
68.626,5.9754076,6.849388,4.8220972,-0.00361080468,0.0057897084,0.00020465534,-10112.0,32765.5,19841.5,
68.744,6.087935,6.837417,4.8340684,-0.004676655,0.0105860344,-0.0011276575,-10368.0,32253.5,18561.5,
68.861,5.8652744,6.79911,4.915471,-0.015468374,0.008854028,-0.00339258784,-9856.0,32509.5,18817.5,
68.983,5.2739068,6.76080236,5.648097,-0.11912228,0.050288944,-0.03590101,-10624.0,32509.5,19585.5,
69.100,5.970619,6.981069,4.733512,0.009046167,0.048956632,0.0064665236,-10112.0,-32514.5,20865.5,
69.214,5.846121,6.751226,5.2650248,-0.029724136,0.017247596,-0.0076559876,-9856.0,32765.5,20353.5,
69.332,5.8054196,6.85417636,5.468532,-0.008140668,-0.024587012,0.0024695872,-9600.0,32765.5,20353.5,
69.449,5.860486,6.751226,5.0830656,-0.0012126416,0.0036580116,0.00073758052,-10368.0,-32514.5,20353.5,
69.571,5.7671124,6.741649,5.090248,-0.0017455816,-0.0062011032,0.0024695872,-11392.0,31997.5,21121.5,
69.688,5.910764,6.7009476,5.0375756,-0.012270838,0.0064558648,-0.0020602756,-10880.0,32765.5,19073.5,
69.805,5.994561,6.8038984,4.980115,0.0005193651,0.0027253888,0.00020465534,-10880.0,32765.5,20609.5,
69.922,5.7695064,6.5740548,5.195593,-0.0030778944,-0.00273709,-0.009387994,-10624.0,32765.5,20097.5,
70.037,5.733593,6.9403677,5.135738,-0.0040104984,-0.0026038588,0.00286928,-10624.0,31997.5,19841.5,
70.160,5.209263,6.4256144,5.3320624,0.010644928,-0.030848876,0.0031357436,-9856.0,32509.5,20609.5,
70.276,5.764718,6.6770052,5.0351816,0.024500996,-0.0063343348,0.005267442,-10368.0,31997.5,20609.5,
70.392,6.1549724,6.9403677,4.7263292,0.019571438,-0.031115346,0.015393018,-9856.0,32765.5,20353.5,
70.511,6.042445,6.7464376,4.9322304,-0.009739429,0.01671467,-0.0060572124,-9856.0,31997.5,19585.5,
70.627,6.001744,6.5740548,5.0687004,-0.00014679134,0.0012598485,0.0022031236,-9856.0,31741.5,19073.5,
70.750,5.8078136,6.85657068,5.0208164,-0.0032111108,0.0063226336,-0.0016605817,-9856.0,31485.5,19585.5,
70.869,6.262712,6.5716604,5.1931988,0.023035436,0.03270242,0.011929004,-10112.0,32509.5,20097.5,
70.985,5.4630484,6.2484436,5.0447584,-0.008673593,-0.044172004,-0.017115406,-10112.0,32765.5,19329.5,
71.102,5.688103,6.882907,4.9465956,0.010644928,-0.0063343348,0.002336355,-9856.0,32509.5,19841.5,
71.218,6.049628,6.717707,4.9561724,-0.011604682,0.010452803,-0.005923982,-9600.0,31997.5,18817.5,
71.333,6.0687816,6.775168,4.939413,-0.001878798,0.0011266135,-0.0036590504,-10112.0,32509.5,18049.5,
71.454,6.1525784,6.6458808,5.066306,0.0003861338,0.0043241644,0.001004043,-9600.0,32253.5,18817.5,
71.569,6.0448392,6.7464376,5.0256048,-0.0058757364,0.009919878,-0.0013941191,-9600.0,31997.5,19585.5,
71.687,6.078358,6.7081304,5.0208164,-0.010405585,0.0043241644,-0.0024599694,-9088.0,32253.5,20097.5,
71.804,6.004138,6.77037936,4.9585668,0.0021181404,-0.014461435,-0.0036590504,-9344.0,31741.5,19585.5,
71.922,5.992167,6.763197,4.939413,-0.0022784918,0.0024589264,-0.00046150108,-9088.0,32253.5,19585.5,
72.044,6.0328684,6.75362,4.99448,-0.0040104984,-0.0083328,-0.0036590504,-8832.0,31997.5,19329.5,
72.158,5.934706,6.81826368,5.004057,-0.0068083555,0.001526311,0.003268974,-9344.0,31741.5,19329.5,
72.275,5.946677,6.84459968,4.925048,-0.00694158636,0.005656477,-0.005923982,-9856.0,31741.5,20097.5,
72.392,6.1166652,6.98825136,4.7909728,-0.03785123,0.034167964,-0.0049913632,-10112.0,31229.5,19585.5,
72.510,5.970619,6.375336,5.3200912,-0.0005464852,-0.028850406,-0.004191975,-11136.0,31997.5,20097.5,
72.631,6.2483464,6.823052,4.9082884,-0.021064088,0.0105860344,-0.015916326,-10368.0,31229.5,19841.5,
72.749,6.3512976,7.20612436,5.4565608,0.012376934,-0.05922713,-0.0057907504,-10112.0,31741.5,21377.5,
72.867,6.0232916,6.825446,5.03997,0.004782766,0.011252191,-0.00046150108,-10112.0,31741.5,21121.5,
72.982,6.3872104,6.861359,4.8699812,-0.010272369,0.019379298,-0.0031261258,-8832.0,31741.5,21121.5,
73.099,6.6146592,6.7129187,4.565918,-0.006541893,0.03150334,-0.0013941191,-11136.0,31997.5,21889.5,
73.223,6.2914424,6.835023,5.042364,-0.006541893,0.020445146,0.001004043,-10624.0,32253.5,21889.5,
73.338,6.174126,6.789533,5.1453148,-0.0010794252,0.008987259,0.00366866784,-10368.0,32509.5,20865.5,
73.455,6.135819,6.614756,4.913077,0.0030507594,-0.012196507,-0.0065901376,-10368.0,31997.5,20353.5,
73.571,5.735987,6.823052,5.099825,-0.041581704,0.052687104,0.0014037369,-11136.0,31741.5,20609.5,
73.687,5.6928916,6.91163736,4.937019,0.0143754032,-0.024853476,-0.0008611949,-10624.0,31997.5,21377.5,
73.811,5.8437268,6.801504,5.063912,-0.01147145,-0.0015380084,-0.0009944253,-10368.0,32765.5,21121.5,
73.926,5.8054196,6.566872,5.1309496,-0.062232554,0.049489556,-0.020312956,-10624.0,32765.5,21633.5,
74.044,6.892387,6.92360836,2.6194318,-0.07115905,0.09891835,-0.027374212,-12160.0,32253.5,22145.5,
74.161,5.992167,6.5812372,5.018422,0.009978771,0.009786647,0.01046346,-11648.0,32765.5,23681.5,
74.275,5.6569784,6.705736,5.3320624,0.0002528876,-0.014994364,0.0022031236,-11392.0,32765.5,23681.5,
74.397,5.965831,6.4423736,5.2003812,-0.003344342,0.008720797,-0.0040587444,-11904.0,32765.5,23681.5,
74.513,5.6569784,6.8661475,5.1333436,-0.01346992,0.016048514,-0.0009944253,-11136.0,-32514.5,22913.5,
74.631,5.695286,6.5956024,5.3009376,0.0021181404,-0.0023373962,0.00193666116,-12160.0,31997.5,23169.5,
74.750,5.800631,6.811081,5.0974308,-0.012270838,0.020045454,-0.0029928944,-11904.0,31229.5,22913.5,
74.866,5.676132,6.6674284,5.351216,-0.0040104984,-0.0016712397,-0.0063236756,-12160.0,31485.5,24193.5,
74.989,5.8413324,6.6650344,5.0974308,0.024500996,-0.011263888,0.0016701994,-12416.0,31229.5,23937.5,
75.107,5.977802,6.72010136,5.2362944,-0.01666747,0.008454334,0.00193666116,-11392.0,31229.5,23681.5,
75.224,5.637825,6.6434864,5.435013,0.013176337,-0.0089989568,0.002336355,-11904.0,30973.5,23169.5,
75.340,5.7934484,6.5333532,5.269813,0.05647649,-0.04084122,-0.001793813,-11648.0,31485.5,22401.5,
75.454,5.917947,6.480681,4.841251,-0.007874206,0.0064558648,0.0006043492,-11136.0,30461.5,21121.5,
75.575,5.9155524,6.6913704,5.0495468,-0.039716484,0.028971944,-0.004458438,-11392.0,29693.5,21121.5,
75.691,5.9371004,6.6554576,5.2506596,-0.05303958,0.034167964,-0.011919388,-11904.0,30973.5,22913.5,
75.808,5.8173904,6.46871,5.078277,-0.1192555,0.13742218,-0.005524288,-12416.0,31229.5,23425.5,
75.922,5.78866,6.5596896,5.4565608,0.018638804,-0.024986706,-0.002726432,-12928.0,31997.5,24449.5,
76.038,5.4606544,6.6913704,5.451772,0.03995581,-0.043372616,0.014327167,-13184.0,30973.5,24449.5,
76.167,6.001744,6.8661475,5.090248,-0.0029446482,-0.0022041648,-0.0021935068,-13184.0,31229.5,23425.5,
76.284,5.9011876,6.8900892,5.209958,0.017173276,-0.016859602,0.003801899,-12928.0,31741.5,24449.5,
76.400,5.688103,6.7009476,5.195593,0.03062962,-0.025519632,0.010729923,-12672.0,31741.5,24193.5,
76.515,5.7168336,6.8302344,5.267419,0.029297308,-0.0223220816,0.0006043492,-12672.0,30461.5,23169.5,
76.633,5.6928916,6.39449,5.1644684,0.0027842968,-0.048835108,-0.0003282698,-12672.0,31485.5,22913.5,
76.749,5.872457,6.686582,5.0447584,0.02077052,-0.028717182,-0.00339258784,-12160.0,30205.5,22657.5,
76.886,5.838938,6.602785,5.221929,-0.009606212,0.0016595423,-0.0036590504,-11392.0,31229.5,21633.5,
77.002,5.850909,6.751226,5.2506596,-0.00014679134,-0.000738620736,-0.0053910568,-11136.0,30973.5,22657.5,
77.120,6.030474,6.787139,5.135738,0.0013187528,-0.011130661,-0.000727963636,-11648.0,30973.5,22401.5,
77.237,5.922735,6.7464376,5.063912,-0.0016123354,-0.00180447468,-0.0016605817,-11392.0,30973.5,22401.5,
77.355,5.8078136,6.729678,5.219535,0.004249841,-0.012462974,0.0034022052,-11392.0,30973.5,21889.5,
77.477,5.810208,6.75362,5.0687004,0.0019849092,0.0013930798,-0.003925513,-11648.0,30717.5,21889.5,
77.592,5.905976,6.6937648,5.1524972,-0.009872675,0.014582971,-0.00685660036,-11136.0,31485.5,22401.5,
77.710,5.98259,6.894878,4.8963176,-0.0073412808,0.009386953,-0.0052578252,-11392.0,30461.5,22145.5,
77.825,6.0687816,6.801504,4.9896916,-0.04944235,0.093455864,-0.008055681,-11392.0,31485.5,21889.5,
77.940,5.2188396,6.044936,5.770201,-0.05357252,0.049356328,-0.019113874,-12928.0,31229.5,23937.5,
78.061,5.989773,7.062472,4.807732,0.0058486164,-0.0006053895,-0.0063236756,-12160.0,31997.5,24705.5,
78.177,5.884428,6.5956024,5.291361,0.020104364,-0.019923918,0.0050009796,-12160.0,31485.5,23681.5,
78.294,5.671344,6.6698228,5.339245,0.006115079,-0.0043358652,-0.000727963636,-12672.0,30717.5,23169.5,
78.411,5.83415,6.6817936,5.219535,0.007180929,-0.00273709,0.000337886632,-11904.0,31997.5,24705.5,
78.526,5.673738,6.846994,5.3320624,0.055010944,-0.032314428,0.010729923,-12672.0,30973.5,24193.5,
78.648,6.016109,7.122327,4.661686,-0.045845108,0.048423708,-0.017914794,-11648.0,30973.5,22913.5,
78.764,4.9291416,7.9722684,4.367199,-0.06343162,0.02843902,-0.15167896,-12160.0,30717.5,23169.5,
78.879,4.81422,6.420826,6.241859,-0.06836118,0.05535173,-0.013651393,-14208.0,30205.5,25217.5,
78.992,6.394393,7.04571236,4.970538,0.08645351,-0.09440018,0.044437428,-13184.0,30717.5,24705.5,
79.107,6.183703,6.741649,5.0710944,-0.040782316,0.020445146,-0.0104538432,-13184.0,30205.5,23169.5,
79.230,5.314608,6.3178752,5.818085,0.027831778,-0.018858068,0.009930537,-13696.0,30461.5,23937.5,
79.345,6.2148276,6.5572952,5.3847348,-0.0667624,0.055751424,-0.0256422052,-12928.0,31485.5,24193.5,
79.462,5.6689496,6.7105244,5.3488216,-0.044779256,0.052420644,-0.0013941191,-13440.0,31229.5,25729.5,
79.580,5.542057,6.6219388,5.4637436,-0.03438723,0.018046982,-0.011519694,-13696.0,31741.5,25985.5,
79.696,5.712045,6.7368608,5.379946,0.008646458,-0.0060678684,0.0016701994,-14464.0,30973.5,27009.5,
79.818,5.8293616,7.0241648,5.051941,-0.095673576,0.06108067,-0.030838226,-14208.0,30973.5,26241.5,
79.935,5.846121,6.4136432,5.537964,-0.011737898,-0.0051352492,-0.016715712,-14720.0,31741.5,27521.5,
80.051,5.5707876,6.447162,5.717529,-0.0010794252,-0.008066338,-0.0003282698,-15232.0,32253.5,28545.5,
80.166,5.3577036,6.552507,5.6313376,0.0155745,-0.018325142,0.004734517,-14976.0,31997.5,27009.5,
80.281,5.707257,6.578843,5.339245,0.013043091,-0.0034032464,0.0048677484,-14464.0,31997.5,26753.5,
80.403,5.6809208,6.6315156,5.549935,0.010245249,-0.045637548,-0.0052578252,-14976.0,31741.5,26753.5,
80.520,5.810208,6.97149236,5.03997,0.020903752,-0.09173556,0.0105966936,-14464.0,30973.5,26241.5,
80.636,5.575576,6.5812372,5.5690884,-0.021463782,0.040696292,-0.016715712,-13952.0,31741.5,25985.5,
80.753,5.838938,6.6075736,5.3248796,0.007180929,-0.016459908,0.0059335984,-14208.0,31229.5,25473.5,
80.869,5.556422,6.614756,5.504445,-0.0026781856,-0.057894826,-0.002726432,-13696.0,31229.5,24961.5,
80.986,5.3433384,6.080849,5.753442,0.032361628,-0.10785654,0.029249064,-12928.0,31229.5,24961.5,
81.108,5.261935,7.110356,5.2410828,-0.03185582,-0.0059346408,0.01792441,-12672.0,30717.5,23681.5,
81.223,5.5827584,6.85417636,5.2291116,-0.013736367,0.0027253888,7.142406e-05,-12160.0,31229.5,22913.5,
81.341,5.757535,6.6817936,5.209958,-1.3560057e-05,-0.010064807,-0.0009944253,-12928.0,31485.5,23169.5,
81.458,5.764718,6.6578516,5.293755,-0.008540362,0.0057897084,-0.00339258784,-12160.0,30717.5,24449.5,
81.574,5.8652744,6.717707,5.147709,0.0030507594,0.000460457068,7.142406e-05,-12928.0,30973.5,23937.5,
81.698,5.848515,6.705736,5.2003812,0.0003861338,0.0024589264,-0.0031261258,-12160.0,31229.5,23425.5,
81.814,5.7814776,6.650669,5.197987,-0.0044102072,0.0053900144,0.0031357436,-12416.0,31485.5,23937.5,
81.931,5.7814776,6.672217,5.269813,-0.00520958,0.0075217187,-0.002326738,-12160.0,31485.5,22913.5,
82.047,5.8197848,6.6698228,5.197987,0.0025178344,-0.0089989568,0.0040683616,-11648.0,31229.5,23681.5,
82.164,5.800631,6.715313,5.2171408,-0.001878798,0.0011266135,0.00193666116,-12416.0,30973.5,22401.5,
82.287,5.824573,6.6889764,5.3344564,-0.00933975,0.0063226336,-0.0028596632,-12416.0,31741.5,22913.5,
82.403,5.83415,6.612362,5.327274,-0.0038772672,0.0008601546,0.0018034298,-12416.0,31229.5,22657.5,
82.518,5.7695064,6.715313,5.2626304,-0.0020120292,0.0019260049,-0.0028596632,-12672.0,30973.5,22913.5,
82.637,5.7790832,6.7129187,5.2722072,-0.0014791042,0.0036580116,0.00193666116,-12928.0,31229.5,23169.5,
82.757,5.6186716,6.698553,5.2889668,-0.0040104984,-0.0006053895,0.0011372734,-12416.0,30973.5,23937.5,
82.880,5.661767,6.717707,5.3583984,-0.0032111108,-0.0028703212,0.000337886632,-12160.0,30973.5,23169.5,
82.997,5.8269672,6.66264,5.197987,-0.0032111108,0.00059369208,-0.00339258784,-12672.0,30717.5,23681.5,
83.114,5.786266,6.6793996,5.207564,-0.0017455816,-0.003669709,0.00073758052,-12416.0,31229.5,24193.5,
83.230,5.8293616,6.6889764,5.245871,-0.0026781856,0.0031250828,-0.002726432,-12672.0,30973.5,23425.5,
83.346,5.838938,6.7009476,5.2147464,-0.005609274,0.001526311,0.0058003672,-12672.0,30973.5,23937.5,
83.468,5.7958428,6.7081304,5.303332,-0.00081294776,0.0024589264,-0.0019270442,-12672.0,30717.5,24193.5,
83.586,5.7934484,6.72010136,5.3224856,-0.0062754304,0.0041909368,-0.0040587444,-11904.0,30717.5,23425.5,
83.705,5.7814776,6.7129187,5.243477,-0.0022784918,0.0003272295,0.00020465534,-12160.0,31229.5,23169.5,
83.824,5.719228,6.6817936,5.35361,-0.0045434236,0.0075217187,0.0006043492,-11648.0,30973.5,23169.5,
83.941,5.7958428,6.636304,5.2362944,-0.00414373,0.009386953,-0.0012608878,-12160.0,30717.5,23937.5,
84.062,5.7838716,6.66264,5.3440332,-0.0053428112,-0.000738620736,-0.0005947314,-12672.0,31229.5,23169.5,
84.179,5.757535,6.705736,5.3200912,-0.0029446482,0.003791239,-0.0008611949,-12416.0,31229.5,23425.5,
84.294,5.8149964,6.72010136,5.243477,0.0030507594,-0.0004721582,0.0018034298,-12672.0,30717.5,22913.5,
84.412,5.8030252,6.6578516,5.3009376,-0.0053428112,0.01444974,-0.0009944253,-12928.0,30205.5,23937.5,
84.528,5.7695064,6.6817936,5.3464276,-0.0049431176,0.0049903208,0.000337886632,-12416.0,30717.5,22913.5,
84.653,5.7790832,6.7081304,5.255448,-0.004276961,-0.0015380084,0.0016701994,-12416.0,30717.5,23425.5,
84.770,5.9634368,6.660246,5.1046132,-0.00774095936,0.01218481,-0.002326738,-12160.0,30973.5,23937.5,
84.886,5.8078136,6.614756,5.2841784,-0.0032111108,0.0011266135,0.00020465534,-12160.0,30973.5,24961.5,
85.003,5.764718,6.72010136,5.2267176,-0.006541893,0.0045906304,-0.0001950385,-12928.0,30717.5,23937.5,
85.120,5.848515,6.696159,5.2410828,-0.005609274,0.0009933859,-0.0001950385,-12928.0,30461.5,23425.5,
85.240,5.7838716,6.684188,5.2051696,-0.0014791042,0.00019399822,0.001004043,-12416.0,31229.5,23169.5,
85.357,5.846121,6.7105244,5.2722072,-0.00081294776,0.0020592324,-0.003259357,-11648.0,31485.5,23681.5,
85.474,5.8149964,6.6434864,5.231506,-0.00347757336,0.0043241644,-0.0005947314,-12928.0,30973.5,23169.5,
85.592,5.755141,6.6817936,5.2865724,-0.007074803,6.0766936e-05,-0.0048581316,-12160.0,30461.5,23937.5,
85.709,5.7838716,6.650669,5.2291116,0.003317222,0.0019260049,-0.0040587444,-12416.0,30717.5,24449.5,
85.833,5.7814776,6.7105244,5.2746016,-0.0010794252,-0.004069403,0.0006043492,-13184.0,30973.5,23937.5,
85.949,5.733593,6.6554576,5.377552,-0.0017455816,-0.00180447468,0.00020465534,-12928.0,30205.5,23425.5,
86.067,5.7623232,6.6913704,5.3488216,-0.00361080468,0.0023256988,-0.001793813,-12928.0,30461.5,22657.5,
86.185,5.8293616,6.7344664,5.2530536,-0.008407116,0.0035247804,-0.0020602756,-12672.0,30461.5,22913.5,
86.304,5.7958428,6.6937648,5.303332,-0.0029446482,0.0036580116,-0.0019270442,-12672.0,31229.5,23937.5,
86.427,5.8197848,6.6650344,5.1931988,-0.0057424904,6.0766936e-05,-0.0043252064,-12672.0,30973.5,22913.5,
86.546,5.8556976,6.727284,5.2410828,-0.0017455816,0.001526311,-0.0008611949,-11904.0,31485.5,22657.5,
86.662,5.709651,6.703342,5.2865724,-0.0021452606,-0.0011383183,0.0016701994,-12672.0,30973.5,22401.5,
86.779,5.8173904,6.638698,5.281784,-0.004276961,0.005123552,-0.0005947314,-12672.0,31229.5,23425.5,
86.893,5.8556976,6.5979968,5.2722072,0.000119671224,0.006056171,-0.0040587444,-13440.0,30973.5,22913.5,
87.017,5.7527468,6.739255,5.27939,0.0030507594,0.0020592324,-0.0037922818,-13184.0,30717.5,23681.5,
87.135,5.800631,6.696159,5.183622,-0.002811417,-0.0032700152,0.0034022052,-12928.0,30973.5,23681.5,
87.250,5.798237,6.6889764,5.255448,-0.0049431176,0.0057897084,0.0022031236,-12672.0,30717.5,23681.5,
87.372,5.848515,6.6099676,5.305726,0.0010522902,0.0035247804,-0.0024599694,-12416.0,30717.5,22913.5,
87.491,5.8173904,6.7823508,5.257842,0.0029175282,0.004723858,-0.0047249004,-12672.0,30205.5,23169.5,
87.613,5.800631,6.674611,5.3105144,-0.0004132688,-0.00313678,0.0006043492,-12928.0,31229.5,23169.5,
87.727,5.8772452,6.6554576,5.303332,-0.002811417,0.00019399822,-0.0012608878,-12672.0,30717.5,23169.5,
87.844,5.86288,6.6674284,5.3009376,-0.00694158636,-0.0015380084,-0.0012608878,-12672.0,30973.5,24193.5,
87.961,5.8413324,6.7105244,5.2841784,0.0003861338,0.0027253888,0.0018034298,-13184.0,30973.5,23681.5,
88.079,5.8030252,6.672217,5.281784,-0.0032111108,0.0075217187,-0.0028596632,-12672.0,30461.5,22401.5,
88.202,5.7288048,6.6578516,5.243477,-0.001878798,0.008454334,-0.0008611949,-12928.0,30973.5,23425.5,
88.317,5.858092,6.715313,5.245871,-0.004809886,0.0036580116,-0.002726432,-12928.0,30973.5,22401.5,
88.431,5.759929,6.6817936,5.2985436,-0.002811417,0.0029918552,-0.0015273513,-12928.0,30973.5,23169.5,
88.548,5.7838716,6.698553,5.2865724,-0.005609274,-0.0028703212,0.0018034298,-12416.0,30973.5,23681.5,
88.664,5.798237,6.729678,5.267419,-0.001878798,0.003924474,-0.00046150108,-12928.0,30717.5,24193.5,
88.784,5.7910544,6.6793996,5.3129088,-0.0016123354,0.0028586238,0.00020465534,-12672.0,30973.5,24193.5,
88.903,5.8533032,6.6770052,5.2722072,-0.0038772672,0.0031250828,-0.002326738,-12928.0,30461.5,24705.5,
89.021,5.764718,6.674611,5.2985436,-0.0020120292,0.0008601546,0.00087081176,-12928.0,30973.5,23681.5,
89.137,5.812602,6.6817936,5.2626304,-0.00361080468,0.0021924674,-0.000727963636,-12672.0,31741.5,23169.5,
89.256,5.860486,6.6051792,5.2410828,-0.0025449544,0.0009933859,0.00073758052,-12160.0,30973.5,22401.5,
89.379,5.83415,6.6793996,5.2051696,-0.003344342,0.0020592324,-0.0025932006,-12928.0,30973.5,23425.5,
89.495,5.7934484,6.6650344,5.243477,-0.0040104984,-0.000205695632,0.0016701994,-12416.0,30973.5,23169.5,
89.614,5.798237,6.5956024,5.2267176,-0.0013458729,-0.0003389269,0.000337886632,-12416.0,32253.5,23681.5,
89.732,5.74317,6.7823508,5.2123524,-0.00014679134,0.0013930798,-0.0009944253,-12416.0,31485.5,23937.5,
89.849,5.910764,6.5979968,5.3464276,-0.0040104984,0.008454334,-0.004458438,-12928.0,30973.5,23681.5,
89.970,5.8533032,6.696159,5.209958,-0.0045434236,0.0059229432,-0.0029928944,-12160.0,31229.5,23425.5,
90.086,5.7719008,6.648275,5.2722072,0.0019849092,-0.0003389269,0.00193666116,-12928.0,31485.5,23681.5,
90.204,5.733593,6.6889764,5.2626304,-0.006541893,-7.246435e-05,-0.0001950385,-12672.0,31485.5,23681.5,
90.320,5.7934484,6.674611,5.377552,-0.0030778944,-0.000205695632,0.0015369672,-12416.0,31229.5,23425.5,
90.437,5.733593,6.6770052,5.27939,-0.00347757336,0.0043241644,-0.0048581316,-12928.0,30717.5,23681.5,
90.560,5.7814776,6.6889764,5.2722072,-0.00361080468,-0.0022041648,0.0026028176,-12928.0,31741.5,23937.5,
90.679,5.824573,6.686582,5.2769956,-0.00014679134,0.005123552,-0.0016605817,-12928.0,31229.5,22913.5,
90.795,5.747958,6.6650344,5.2626304,-0.001878798,0.006189406,0.0012705056,-12928.0,31485.5,23169.5,
90.911,5.812602,6.6770052,5.2506596,-0.0020120292,0.0021924674,-0.0003282698,-12928.0,31229.5,23169.5,
91.028,5.822179,6.696159,5.2482652,-0.006541893,0.0055232496,0.0015369672,-13184.0,31485.5,22913.5,
91.150,5.7719008,6.7248892,5.3224856,-0.0020120292,-7.246435e-05,-0.0008611949,-12672.0,30973.5,23169.5,
91.267,5.757535,6.686582,5.3105144,-0.00361080468,0.000460457068,-0.002326738,-12416.0,31485.5,23169.5,
91.385,5.7934484,6.6889764,5.3009376,-0.005609274,0.0036580116,-0.003259357,-12672.0,30717.5,22657.5,
91.501,5.8269672,6.717707,5.2362944,-0.0026781856,0.0031250828,-0.0035258192,-12416.0,31229.5,22913.5,
91.619,5.7407756,6.705736,5.329668,-0.0050763636,0.0024589264,-0.002326738,-12672.0,31741.5,23681.5,
91.740,5.7623232,6.674611,5.207564,-0.0012126416,0.0028586238,-0.0013941191,-12416.0,30973.5,23425.5,
91.857,5.8173904,6.6554576,5.257842,-0.0014791042,6.0766936e-05,-0.001793813,-13184.0,31229.5,23169.5,
91.974,5.7168336,6.686582,5.3248796,-0.0029446482,0.006189406,-0.006723369,-11904.0,31229.5,24193.5,
92.090,5.74317,6.6793996,5.2339,-0.0030778944,0.0013930798,0.00047111884,-12416.0,31485.5,24193.5,
92.206,5.8533032,6.698553,5.2865724,-0.0021452606,-0.0015380084,0.00020465534,-12416.0,30717.5,24705.5,
92.329,5.822179,6.6770052,5.2410828,0.000119671224,0.00738848368,0.00087081176,-12416.0,30973.5,23169.5,
92.449,5.810208,6.684188,5.2410828,-0.00361080468,-0.0016712397,-0.001793813,-12416.0,31229.5,24449.5,
92.566,5.7910544,6.684188,5.2482652,-0.0032111108,0.0029918552,0.0024695872,-12928.0,31229.5,23169.5,
92.683,5.7695064,6.703342,5.267419,-0.00694158636,0.006056171,-0.0047249004,-13184.0,30461.5,23681.5,
92.800,5.8197848,6.7081304,5.2362944,0.0041166096,-0.004202634,0.00286928,-12928.0,30973.5,24193.5,
92.922,5.7671124,6.6434864,5.3703692,-0.0049431176,0.005256787,-0.0036590504,-12416.0,30461.5,23425.5,
93.039,5.786266,6.6674284,5.2602364,-0.0029446482,0.00725525236,-0.002726432,-12672.0,30461.5,23681.5,
93.157,5.884428,6.6817936,5.1908044,0.0005193651,0.003924474,-0.0016605817,-12928.0,30461.5,24193.5,
93.273,5.774295,6.7081304,5.150103,-0.0060089676,0.0035247804,-0.000727963636,-13184.0,30461.5,24193.5,
93.393,5.7264104,6.66264,5.2889668,-0.0040104984,0.0027253888,-0.0009944253,-12672.0,30461.5,24449.5,
93.514,5.637825,6.6578516,5.3129088,0.0005193651,-0.00313678,0.000337886632,-12416.0,30717.5,23425.5,
93.631,5.676132,6.7081304,5.281784,-0.008007437,0.0040577016,-0.0008611949,-12672.0,30717.5,22401.5,
93.746,5.6665552,6.6650344,5.339245,0.0010522902,-0.0010050833,0.00047111884,-12672.0,30205.5,24193.5,
93.863,5.872457,6.7488316,5.255448,-0.008806825,0.00725525236,-0.002726432,-12416.0,30461.5,23169.5,
93.981,5.8030252,6.715313,5.219535,-0.0005464852,-0.0028703212,0.0048677484,-12416.0,30205.5,23169.5,
94.103,5.8173904,6.6578516,5.2602364,0.0005193651,0.004857093,-0.0036590504,-12928.0,30717.5,23681.5,
94.220,5.747958,6.6889764,5.2362944,-0.00361080468,0.0009933859,7.142406e-05,-12160.0,30461.5,23169.5,
94.337,5.7671124,6.638698,5.3320624,0.000919044,0.0003272295,-0.0003282698,-12928.0,30461.5,23937.5,
94.452,5.774295,6.72010136,5.2889668,-0.0057424904,0.0031250828,0.00047111884,-12672.0,30461.5,24961.5,
94.570,5.776689,6.6099676,5.197987,-0.00414373,0.0067223272,-0.0015273513,-12928.0,30205.5,24193.5,
94.692,5.7527468,6.72249536,5.3248796,-0.0014791042,-0.00273709,-0.0009944253,-12928.0,29949.5,23937.5,
94.809,5.7790832,6.7105244,5.3009376,0.0005193651,0.0024589264,0.001004043,-12928.0,30717.5,23681.5,
94.926,5.3936168,6.334635,5.415859,0.0022513718,-0.00380293668,0.0024695872,-13440.0,29949.5,23425.5,
95.043,5.810208,6.6650344,5.379946,-0.0017455816,0.0020592324,0.00366866784,-13184.0,30461.5,23425.5,
95.161,5.8078136,6.672217,5.327274,-0.00067971648,0.0025921612,0.001004043,-12416.0,29949.5,22657.5,
95.283,5.7958428,6.703342,5.257842,-0.006675124,0.0043241644,0.0022031236,-11904.0,29693.5,23425.5,
95.399,5.7790832,6.636304,5.305726,-0.0005464852,0.005656477,-0.002326738,-12160.0,30717.5,23937.5,
95.513,5.8078136,6.6650344,5.3129088,0.0030507594,0.005256787,-0.0037922818,-12416.0,29949.5,24449.5,
95.632,5.709651,6.7081304,5.3248796,-0.00094617908,-0.000205695632,-0.0015273513,-12672.0,29949.5,24449.5,
95.751,5.822179,6.7105244,5.2626304,-0.0038772672,0.0041909368,-0.0043252064,-12928.0,29693.5,24449.5,
95.874,5.7168336,6.66264,5.2889668,-0.00081294776,0.0019260049,0.00020465534,-13184.0,30205.5,22913.5,
95.992,5.8149964,6.684188,5.2650248,-0.0016123354,0.0003272295,-0.0040587444,-12672.0,30717.5,23169.5,
96.109,5.7623232,6.7464376,5.257842,-0.006541893,0.0016595423,-0.000727963636,-12160.0,30717.5,23681.5,
96.227,5.757535,6.696159,5.3081204,-0.0005464852,-0.0004721582,-6.180722e-05,-12928.0,30461.5,23937.5,
96.342,5.78866,6.7081304,5.27939,-0.00520958,0.00179276984,0.00087081176,-11904.0,31229.5,23937.5,
96.463,5.731199,6.7129187,5.317697,-0.0040104984,-0.000871852064,0.0012705056,-12672.0,30461.5,23425.5,
96.583,5.733593,6.7129187,5.305726,-0.0057424904,0.0008601546,-0.0001950385,-12928.0,29693.5,23681.5,
96.700,5.7958428,6.6913704,5.231506,-0.0014791042,0.00059369208,0.0011372734,-12160.0,30717.5,23681.5,
96.817,5.709651,6.660246,5.327274,-0.00720804936,-0.0003389269,-0.00339258784,-11904.0,30973.5,22913.5,
96.935,5.733593,6.6674284,5.2626304,0.0010522902,-7.246435e-05,0.00193666116,-12416.0,30461.5,23169.5,
97.059,5.7910544,6.6650344,5.2985436,-0.0058757364,0.00019399822,-0.0019270442,-12672.0,30461.5,23425.5,
97.177,5.757535,6.6578516,5.3224856,-0.0058757364,0.0033915452,-0.0009944253,-12928.0,30973.5,23169.5,
97.293,5.759929,6.6434864,5.387129,-0.00361080468,0.0045906304,-0.002726432,-12928.0,30717.5,23169.5,
97.411,5.8413324,6.6793996,5.245871,0.0026510656,0.001526311,-0.0005947314,-13184.0,30461.5,23425.5,
97.527,5.7503524,6.7009476,5.3320624,-0.0020120292,0.001526311,0.00020465534,-12928.0,30205.5,23169.5,
97.650,5.65219,6.698553,5.3009376,-0.004676655,-0.0052684844,0.0015369672,-13184.0,29693.5,24193.5,
97.766,5.7407756,6.696159,5.231506,-0.002811417,0.0068555624,-0.002726432,-12928.0,30461.5,22913.5,
97.881,5.7383816,6.7105244,5.269813,0.00065259636,-0.0034032464,0.0011372734,-12928.0,30205.5,23681.5,
97.999,5.7623232,6.696159,5.293755,-0.010272369,0.0044573956,-0.0037922818,-12928.0,30461.5,23681.5,
98.117,5.755141,6.6099676,5.391917,-0.01147145,0.009386953,-0.0029928944,-12416.0,30717.5,23681.5,
98.238,5.8078136,6.729678,5.2985436,0.00185167792,0.00019399822,-0.0037922818,-12160.0,30717.5,23681.5,
98.359,5.707257,6.715313,5.3248796,-0.0029446482,0.00019399822,-0.004191975,-12416.0,30461.5,24193.5,
98.475,5.822179,6.6698228,5.3488216,-0.0050763636,-0.0011383183,-0.0016605817,-12928.0,30461.5,22657.5,
98.593,5.7288048,6.72249536,5.2746016,-0.0022784918,0.0057897084,0.0012705056,-12672.0,30717.5,23937.5,
98.712,5.836544,6.684188,5.2746016,-0.0062754304,0.0049903208,-0.0008611949,-12928.0,30461.5,23425.5,
98.840,5.7623232,6.72010136,5.2530536,-0.0017455816,-0.000205695632,0.0012705056,-12928.0,30973.5,23425.5,
98.960,5.7264104,6.602785,5.315303,0.000119671224,-0.0023373962,-0.0008611949,-13440.0,30205.5,23169.5,
99.077,5.7503524,6.6698228,5.3440332,-0.0013458729,-0.000205695632,-0.00339258784,-12416.0,29693.5,23425.5,
99.198,5.7958428,6.636304,5.2339,-0.0038772672,0.0003272295,-0.004458438,-12928.0,30461.5,22913.5,
99.312,5.8149964,6.763197,5.219535,-0.0029446482,0.004723858,-0.0037922818,-12672.0,30205.5,23169.5,
99.435,5.74317,6.672217,5.35361,-0.014269307,0.0031250828,-0.008455375,-12928.0,30205.5,22913.5,
99.550,5.764718,6.6650344,5.315303,-0.00014679134,-0.009265419,0.0048677484,-13440.0,30205.5,23681.5,
99.666,5.764718,6.698553,5.2291116,-0.012670532,0.01218481,-0.0048581316,-13184.0,29693.5,23169.5,
99.781,5.8149964,6.705736,5.291361,-0.0062754304,0.0012598485,-0.0005947314,-13184.0,30461.5,22913.5,
99.897,5.8269672,6.6817936,5.3009376,-0.0029446482,0.0028586238,-0.0015273513,-12672.0,30461.5,23681.5,
100.022,5.700074,6.6650344,5.2961492,-0.00414373,-0.0004721582,0.0006043492,-12416.0,30205.5,23169.5,
100.137,5.7910544,6.6889764,5.3943116,-0.0004132688,0.006189406,-0.0012608878,-12160.0,30205.5,23681.5,
100.254,5.860486,6.72010136,5.305726,-0.0021452606,0.0009933859,-0.0012608878,-12672.0,30205.5,23425.5,
100.371,5.7168336,6.660246,5.3081204,-0.002411738,0.0011266135,0.00073758052,-12416.0,30205.5,24449.5,
100.488,5.846121,6.703342,5.0710944,-0.011871144,0.013517121,-0.0021935068,-12160.0,30461.5,23169.5,
100.611,5.78866,6.6698228,5.2602364,-0.009872675,0.010319572,-0.0028596632,-13184.0,30205.5,23169.5,
100.727,5.764718,6.6770052,5.2746016,-0.0005464852,-0.000738620736,-0.0028596632,-12416.0,30717.5,24193.5,
100.844,5.7790832,6.6674284,5.2362944,0.0010522902,0.0019260049,0.00087081176,-12672.0,29437.5,24193.5,
100.963,5.774295,6.6219388,5.3823404,-0.0012126416,-0.0004721582,-0.000727963636,-13440.0,29949.5,23681.5,
101.081,5.6904976,6.7368608,5.2985436,-0.00720804936,0.0024589264,-0.0020602756,-12928.0,29949.5,23937.5,
101.207,5.824573,6.7105244,5.2339,-0.004276961,0.0029918552,-0.003925513,-13184.0,30973.5,22913.5,
101.322,5.776689,6.6099676,5.327274,-0.0016123354,0.005656477,-0.0043252064,-12672.0,30717.5,22145.5,
101.438,5.7383816,6.727284,5.3607924,-0.00520958,0.0023256988,-0.0040587444,-12928.0,30717.5,23937.5,
101.554,5.7719008,6.6339096,5.305726,-0.0012126416,0.0033915452,-0.0003282698,-12928.0,30717.5,23425.5,
101.671,5.755141,6.6315156,5.329668,-0.00720804936,-0.0004721582,-0.0029928944,-12672.0,30461.5,24193.5,
101.793,5.707257,6.6650344,5.391917,0.000785827636,-0.0019377023,-0.000727963636,-12928.0,30973.5,24961.5,
101.913,5.774295,6.76798536,5.2123524,-0.0038772672,0.0011266135,0.0064665236,-12672.0,30461.5,23681.5,
102.032,5.719228,6.6698228,5.339245,0.0022513718,-0.0020709336,-0.00046150108,-13184.0,30205.5,23425.5,
102.149,5.884428,6.698553,5.341639,0.000785827636,0.0041909368,-6.180722e-05,-12672.0,30461.5,23681.5,
102.266,5.755141,6.612362,5.2722072,-0.0016123354,-0.004602328,-0.0005947314,-12672.0,30717.5,23937.5,
102.387,5.6569784,6.6410924,5.303332,-0.006541893,-0.0015380084,-0.0011276575,-12928.0,30461.5,23937.5,
102.504,5.8078136,6.638698,5.2722072,-0.00414373,0.004723858,-0.002326738,-13184.0,30461.5,23681.5,
102.619,5.7790832,6.6554576,5.315303,-0.0022784918,0.0044573956,7.142406e-05,-12672.0,30717.5,24705.5,
102.736,5.6545844,6.6770052,5.3248796,0.0038501472,0.0019260049,0.0012705056,-13184.0,30717.5,23169.5,
102.856,5.9490716,6.7009476,5.2171408,-0.0022784918,0.0064558648,0.0022031236,-12928.0,30461.5,23425.5,
102.980,5.676132,6.7560148,5.4086768,0.0002528876,-0.005002022,-0.0005947314,-12672.0,30717.5,23681.5,
103.095,6.097512,6.5118056,5.3320624,-0.0010794252,0.006589096,-0.0085886068,-13184.0,30717.5,23425.5,
103.211,5.659373,6.612362,5.356004,-0.004809886,0.006056171,0.0006043492,-13440.0,30461.5,22913.5,
103.325,5.798237,6.6770052,5.1524972,-0.0016123354,0.0067223272,0.0015369672,-12672.0,30717.5,24705.5,
103.443,6.0232916,6.933185,5.135738,-0.015734836,0.010985728,-0.0064569064,-13184.0,30717.5,23681.5,
103.565,5.6928916,6.763197,5.4565608,-0.021330566,0.013517121,-0.0009944253,-12672.0,30973.5,23169.5,
103.682,5.221234,5.7265076,5.0567292,0.013576031,-0.034046428,0.00766560536,-12928.0,30461.5,23937.5,
103.800,5.733593,6.957127,5.624155,-0.010672063,0.008854028,-0.00046150108,-12416.0,31229.5,24449.5,
103.916,5.8676684,6.72249536,5.389523,-0.0030778944,0.005256787,-0.001793813,-12672.0,30717.5,24193.5,
104.033,5.568393,6.3681536,5.439801,0.004782766,-0.0052684844,0.0006043492,-12928.0,31229.5,24193.5,
104.155,5.731199,6.638698,5.3727636,-0.015734836,0.013650352,-0.006723369,-12160.0,30973.5,24193.5,
104.270,5.8437268,6.6434864,5.351216,0.0026510656,-0.0059346408,0.0027360496,-12928.0,30717.5,23425.5,
104.387,5.74317,6.674611,5.317697,-0.003344342,-0.0030035526,-0.0052578252,-13440.0,31229.5,23169.5,
104.502,5.712045,6.6530632,5.413465,0.000919044,0.000460457068,0.001004043,-13184.0,30973.5,24449.5,
104.618,5.7144392,6.648275,5.3248796,-0.0068083555,0.00072692332,-0.0024599694,-12672.0,30717.5,24193.5,
104.743,5.7814776,6.72010136,5.341639,-0.002411738,0.0013930798,0.0024695872,-13184.0,30717.5,24705.5,
104.861,5.759929,6.6889764,5.356004,-0.0064086468,0.0023256988,0.0027360496,-13440.0,31229.5,24961.5,
104.977,5.7168336,6.686582,5.27939,-0.0017455816,0.0045906304,-0.00339258784,-13696.0,30205.5,25217.5,
105.094,5.7288048,6.705736,5.327274,-0.00774095936,0.003924474,-0.0001950385,-13440.0,30717.5,25217.5,
105.210,5.731199,6.6339096,5.339245,-0.00361080468,-0.0014047772,0.00020465534,-13184.0,30717.5,24961.5,
105.333,5.7719008,6.66264,5.375158,-0.0017455816,-0.0006053895,-0.0025932006,-12672.0,30205.5,23937.5,
105.448,5.764718,6.6219388,5.435013,-0.007074803,0.0013930798,-0.0011276575,-13184.0,30717.5,24449.5,
105.565,5.774295,6.6650344,5.3703692,-0.005609274,0.0035247804,-0.0037922818,-13440.0,30461.5,24193.5,
105.685,5.7623232,6.6650344,5.315303,-0.003344342,0.0031250828,-0.00339258784,-12416.0,30973.5,23681.5,
105.803,5.733593,6.6674284,5.315303,-0.0020120292,0.00179276984,-0.0037922818,-13696.0,30205.5,23681.5,
105.928,5.735987,6.6770052,5.3105144,0.000119671224,0.0016595423,7.142406e-05,-13440.0,30973.5,24193.5,
106.046,5.707257,6.6770052,5.3488216,0.0010522902,0.00019399822,-6.180722e-05,-13184.0,30973.5,23169.5,
106.164,5.774295,6.660246,5.3081204,0.0027842968,-0.00313678,0.0027360496,-12928.0,30205.5,23937.5,
106.279,5.848515,6.703342,5.2027756,-0.00694158636,0.007122021,-0.0008611949,-12672.0,30717.5,22657.5,
106.396,5.7671124,6.6650344,5.387129,-0.009606212,0.01325066,-0.0047249004,-12928.0,30461.5,23169.5,
106.517,5.7814776,6.739255,5.243477,0.000919044,-0.0062011032,0.0014037369,-12928.0,30717.5,23937.5,
106.633,5.8317556,6.6171504,5.315303,-0.0064086468,0.008987259,-0.00339258784,-13184.0,29949.5,23681.5,
106.751,5.776689,6.6219388,5.3440332,0.002384603,0.00019399822,0.002336355,-13184.0,29949.5,23425.5,
106.868,5.7407756,6.739255,5.365581,0.006514773,-0.0026038588,0.00047111884,-13440.0,30205.5,22913.5,
106.984,5.7527468,6.6219388,5.415859,-0.0004132688,-0.0012715459,-0.0025932006,-12928.0,30461.5,23937.5,
107.107,5.836544,6.7105244,5.3200912,-0.0016123354,6.0766936e-05,-0.005524288,-13184.0,30461.5,23425.5,
107.224,5.7719008,6.6339096,5.367975,0.00371691568,-0.0072669532,-0.0009944253,-13184.0,30461.5,24193.5,
107.342,5.9634368,6.715313,5.063912,-0.009872675,0.00912049,-0.0035258192,-12672.0,30205.5,24449.5,
107.456,5.676132,6.626727,5.3368508,-0.006541893,0.011785116,0.00047111884,-12928.0,29693.5,23937.5,
107.572,5.747958,6.5932084,5.35361,-0.0045434236,0.0044573956,-0.0049913632,-13440.0,30461.5,23681.5,
107.694,5.759929,6.6458808,5.3081204,0.0019849092,0.0053900144,-0.002726432,-13440.0,29949.5,24961.5,
107.811,5.7814776,6.674611,5.293755,-0.0064086468,0.0035247804,-0.0009944253,-13440.0,29181.5,24193.5,
107.929,5.7910544,6.6171504,5.329668,-0.0004132688,-0.0012715459,-0.0009944253,-12928.0,29693.5,22913.5,
108.045,5.7527468,6.686582,5.3200912,-0.0025449544,0.0059229432,0.0006043492,-13440.0,29437.5,24705.5,
108.167,5.755141,6.6817936,5.3368508,-0.0022784918,-0.0019377023,0.00073758052,-13696.0,29949.5,24449.5,
108.286,5.709651,6.650669,5.303332,-0.0038772672,0.0032583176,-0.0031261258,-13184.0,29949.5,23937.5,
108.403,5.7264104,6.6817936,5.2985436,-0.008007437,0.003924474,0.0006043492,-12928.0,30461.5,23681.5,
108.519,5.759929,6.7081304,5.27939,-0.0029446482,0.0028586238,0.00047111884,-12928.0,30461.5,24193.5,
108.636,5.700074,6.7105244,5.375158,-0.0005464852,-0.00273709,-0.001793813,-13440.0,30205.5,23681.5,
108.756,5.7623232,6.696159,5.3081204,-0.00081294776,0.00179276984,0.0039351304,-13184.0,30461.5,23425.5,
108.875,5.719228,6.6674284,5.27939,-0.00361080468,0.0009933859,0.003268974,-13696.0,29693.5,22657.5,
108.990,5.731199,6.6770052,5.317697,-0.0029446482,-0.000871852064,0.00020465534,-13184.0,30205.5,23681.5,
109.108,5.733593,6.6889764,5.327274,-0.0016123354,0.005256787,0.0014037369,-13440.0,30205.5,23425.5,
109.224,5.8030252,6.660246,5.327274,0.002384603,0.0012598485,7.142406e-05,-13184.0,30717.5,24193.5,
109.346,5.735987,6.6650344,5.291361,-0.0029446482,0.0012598485,0.003268974,-13696.0,29949.5,23681.5,
109.462,5.7144392,6.624333,5.329668,-0.004676655,0.0068555624,-0.0024599694,-12928.0,30461.5,24193.5,
109.579,5.78866,6.696159,5.267419,-0.0037440508,6.0766936e-05,-0.0047249004,-13184.0,30205.5,23937.5,
109.695,5.836544,6.7105244,5.3009376,-0.0040104984,0.0009933859,-0.0015273513,-13184.0,29437.5,23681.5,
109.812,5.7671124,6.6817936,5.367975,-0.00520958,-0.0034032464,-0.0040587444,-12672.0,30205.5,24193.5,
109.934,5.7407756,6.648275,5.305726,-0.00520958,0.0012598485,-0.0013941191,-12928.0,29949.5,23681.5,
110.050,5.747958,6.6770052,5.339245,-0.004809886,-0.0010050833,-0.002726432,-12928.0,30717.5,24193.5,
110.171,5.7623232,6.6817936,5.305726,-0.0050763636,-0.0019377023,0.00366866784,-12928.0,30461.5,24449.5,
110.291,5.735987,6.6578516,5.3248796,-0.0021452606,0.0044573956,-0.0029928944,-12416.0,30205.5,24961.5,
110.409,5.7383816,6.684188,5.3703692,-0.0014791042,0.0023256988,-6.180722e-05,-13696.0,29949.5,24449.5,
110.532,5.759929,6.672217,5.2602364,-0.0010794252,6.0766936e-05,-0.0009944253,-12416.0,29949.5,23681.5,
110.648,5.709651,6.705736,5.3967056,-0.0014791042,-0.00380293668,0.00087081176,-12928.0,29949.5,24961.5,
110.766,5.7503524,6.648275,5.303332,-0.0040104984,-0.005401712,0.000337886632,-13440.0,30461.5,24449.5,
110.883,5.776689,6.77037936,5.2626304,0.001451984,0.0049903208,0.00073758052,-13184.0,30205.5,25217.5,
111.001,5.700074,6.6554576,5.379946,-0.004276961,-0.0010050833,-0.000727963636,-12928.0,29693.5,23937.5,
111.124,5.764718,6.6530632,5.305726,-0.008140668,0.004857093,-0.002326738,-12672.0,30461.5,25473.5,
111.238,5.759929,6.6937648,5.339245,-0.00694158636,0.0008601546,0.0034022052,-12928.0,30461.5,24705.5,
111.355,5.755141,6.6817936,5.2506596,-0.002411738,0.00179276984,-0.0012608878,-12416.0,30717.5,24705.5,
111.473,5.8054196,6.638698,5.3248796,-0.0021452606,0.0032583176,-0.0019270442,-13440.0,29949.5,24449.5,
111.591,5.709651,6.6937648,5.3105144,-0.007607743,0.0013930798,-0.0048581316,-13184.0,30717.5,23937.5,
111.714,5.7048624,6.6817936,5.3320624,-0.0026781856,0.00805464,-6.180722e-05,-12672.0,30205.5,24193.5,
111.831,5.688103,6.660246,5.35361,-0.008007437,0.0029918552,-0.000727963636,-13440.0,30461.5,24449.5,
111.946,5.764718,6.6793996,5.3703692,-0.0040104984,0.0044573956,-0.001793813,-13440.0,30461.5,24449.5,
112.063,5.774295,6.696159,5.3224856,-0.003344342,0.0031250828,-0.00046150108,-13440.0,29949.5,24449.5,
112.180,5.764718,6.6578516,5.2722072,-0.0013458729,0.00179276984,-0.0012608878,-13440.0,30205.5,24961.5,
112.304,5.74317,6.686582,5.3727636,-0.0058757364,0.00072692332,0.0016701994,-12928.0,30461.5,23937.5,
112.421,5.7383816,6.660246,5.2626304,-0.006142199,0.007122021,-0.0015273513,-13184.0,30461.5,23937.5,
112.537,5.7910544,6.6578516,5.351216,-0.0026781856,-0.0014047772,-0.0015273513,-12928.0,30717.5,23937.5,
112.655,5.747958,6.6889764,5.245871,-0.002811417,0.0032583176,-0.0024599694,-13440.0,29693.5,23169.5,
112.771,5.724016,6.6793996,5.356004,-0.0037440508,-7.246435e-05,7.142406e-05,-13696.0,30205.5,23681.5,
112.893,5.78866,6.6650344,5.3105144,-0.0038772672,0.001526311,-0.0009944253,-13696.0,30717.5,24449.5,
113.009,5.7024684,6.674611,5.2985436,0.000785827636,0.0013930798,-0.001793813,-12672.0,30461.5,24193.5,
113.127,5.7671124,6.684188,5.35361,-0.0022784918,0.00059369208,0.0014037369,-12416.0,30461.5,25217.5,
113.244,5.671344,6.684188,5.387129,-0.004676655,-0.0011383183,0.00020465534,-13184.0,30973.5,24449.5,
113.360,5.7934484,6.614756,5.3464276,-0.0050763636,0.0035247804,-0.0009944253,-12928.0,31229.5,24705.5,
113.484,5.8078136,6.686582,5.3224856,-0.0062754304,0.00059369208,-0.0021935068,-13184.0,30973.5,24449.5,
113.601,5.7288048,6.66264,5.3991,-0.0021452606,0.0020592324,-0.0029928944,-13440.0,30973.5,24193.5,
113.716,5.683315,6.705736,5.3200912,-0.008140668,-0.0020709336,-0.000727963636,-12928.0,30717.5,24705.5,
113.833,5.7264104,6.6674284,5.3320624,-0.0016123354,0.0019260049,0.0012705056,-13440.0,30717.5,24705.5,
113.953,5.721622,6.6889764,5.3847348,-0.0045434236,0.0033915452,0.0040683616,-13184.0,30461.5,25217.5,
114.076,5.757535,6.6291212,5.3105144,-0.002811417,-0.0014047772,7.142406e-05,-13696.0,30717.5,24193.5,
114.193,5.735987,6.6578516,5.315303,-0.001878798,0.0041909368,7.142406e-05,-13440.0,30717.5,24449.5,
114.308,5.7934484,6.72010136,5.2769956,-0.0013458729,0.0025921612,-0.0031261258,-12672.0,31229.5,24705.5,
114.428,5.78866,6.6698228,5.341639,-0.006541893,0.006189406,-0.0013941191,-13184.0,29949.5,24193.5,
114.543,5.7838716,6.6913704,5.281784,-0.0060089676,-0.0034032464,0.0012705056,-12672.0,30461.5,24449.5,
114.681,5.764718,6.6817936,5.3727636,-0.00774095936,0.0012598485,-0.00339258784,-13184.0,30717.5,24449.5,
114.801,5.8173904,6.7081304,5.341639,-0.0026781856,-0.0003389269,-0.0009944253,-13440.0,30461.5,24961.5,
114.918,5.757535,6.6554576,5.3009376,-0.001878798,0.0020592324,-0.0005947314,-13184.0,30717.5,24193.5,
115.034,5.7527468,6.717707,5.3320624,0.0021181404,0.0016595423,0.0006043492,-13440.0,30461.5,24193.5,
115.151,5.747958,6.6578516,5.329668,-0.0013458729,-0.00313678,0.0014037369,-12928.0,30461.5,23681.5,
115.273,5.774295,6.7081304,5.317697,-0.0016123354,0.0009933859,-0.0020602756,-13184.0,29693.5,22401.5,
115.390,5.7407756,6.6578516,5.3488216,-0.0022784918,0.00072692332,-0.0063236756,-12928.0,29949.5,24193.5,
115.508,5.7383816,6.6554576,5.3320624,-0.0010794252,0.0055232496,0.002336355,-13184.0,29949.5,24705.5,
115.625,5.8293616,6.6770052,5.2985436,-0.0029446482,0.0053900144,-0.0025932006,-13184.0,30205.5,24449.5,
115.743,5.7958428,6.7105244,5.3344564,-0.001878798,0.0055232496,0.00087081176,-13440.0,29437.5,23937.5,
115.867,5.774295,6.6698228,5.3200912,-0.0029446482,0.0016595423,-0.000727963636,-12672.0,30205.5,24961.5,
115.986,5.747958,6.729678,5.281784,0.000785827636,0.0020592324,0.000337886632,-13184.0,29693.5,24705.5,
116.104,5.7934484,6.6578516,5.3081204,-0.004276961,0.0040577016,-0.0043252064,-13184.0,30973.5,24193.5,
116.222,5.685709,6.684188,5.3081204,-0.00414373,0.005256787,0.00286928,-13440.0,29949.5,25217.5,
116.335,5.733593,6.7009476,5.2985436,0.000785827636,0.0068555624,-0.0005947314,-12672.0,29949.5,24193.5,
116.459,5.755141,6.648275,5.341639,-0.0017455816,-0.00180447468,-0.0008611949,-12672.0,30205.5,23937.5,
116.576,5.7527468,6.6171504,5.3200912,-0.0044102072,0.0049903208,0.0015369672,-13696.0,30205.5,23681.5,
116.694,5.747958,6.6434864,5.3200912,0.001451984,0.005656477,-0.004458438,-12928.0,30717.5,25217.5,
116.810,5.7383816,6.6913704,5.3368508,-0.0022784918,6.0766936e-05,0.0011372734,-13440.0,30717.5,26241.5,
116.928,5.757535,6.66264,5.293755,-0.0049431176,0.007122021,-0.0031261258,-13696.0,29949.5,25473.5,
117.049,5.7503524,6.72249536,5.2746016,-0.0032111108,0.00725525236,-0.00046150108,-13184.0,30205.5,24705.5,
117.169,5.755141,6.6291212,5.2650248,-0.004809886,-0.0039361716,-0.0031261258,-12416.0,30461.5,25473.5,
117.286,5.695286,6.6434864,5.375158,0.001451984,0.0024589264,0.0027360496,-12416.0,31229.5,24449.5,
117.402,5.8413324,6.7009476,5.2626304,-0.0058757364,0.0053900144,-0.0045916692,-12416.0,30717.5,24705.5,
117.520,5.731199,6.6434864,5.2865724,-0.0010794252,0.00019399822,-0.0013941191,-12672.0,30717.5,23937.5,
117.644,5.724016,6.7105244,5.3464276,-0.0068083555,0.00179276984,-0.00339258784,-13440.0,30973.5,24193.5,
117.765,5.7910544,6.72010136,5.2626304,-0.0038772672,0.0032583176,-0.0015273513,-13184.0,30205.5,23681.5,
117.885,5.886822,6.741649,5.305726,-0.0030778944,0.0003272295,-0.000727963636,-12928.0,30461.5,23937.5,
118.001,5.685709,6.66264,5.3200912,-0.00067971648,0.00059369208,-0.004458438,-13696.0,30205.5,24705.5,
118.117,5.8556976,6.6817936,5.243477,-0.004676655,0.000460457068,-6.180722e-05,-13440.0,30205.5,25473.5,
118.241,5.735987,6.660246,5.209958,-0.001878798,0.005123552,-0.003925513,-13184.0,30717.5,25217.5,
118.355,6.0927232,6.7919272,4.807732,0.0022513718,0.011918347,7.142406e-05,-13696.0,29949.5,24193.5,
118.472,5.4774136,6.4782868,5.425436,-0.00081294776,0.004857093,0.0026028176,-13696.0,30717.5,24705.5,
118.588,5.733593,6.5022288,5.111796,-0.0049431176,-0.004602328,0.00073758052,-12672.0,30205.5,24961.5,
118.704,5.858092,6.79671536,5.3823404,-0.007474512,0.008587565,-0.001793813,-12928.0,30973.5,24449.5,
118.827,5.7288048,6.715313,5.3105144,-0.004276961,-0.0011383183,-0.0003282698,-12928.0,30461.5,24705.5,
118.943,5.7814776,6.6099676,5.3224856,-0.0016123354,0.0021924674,-0.000727963636,-12928.0,30205.5,24449.5,
119.063,5.7407756,6.6698228,5.305726,-0.00520958,0.00179276984,0.00020465534,-12928.0,30973.5,25473.5,
119.180,5.7671124,6.6889764,5.257842,-0.00347757336,-0.0004721582,-0.005657519,-12672.0,29949.5,24449.5,
119.297,5.7838716,6.672217,5.2746016,-0.00081294776,0.0016595423,-0.0001950385,-13184.0,30205.5,23425.5,
119.420,5.95386,6.7464376,5.1788336,0.0011855215,0.0067223272,-0.0019270442,-13440.0,30717.5,24449.5,
119.537,5.8556976,6.660246,5.3727636,-0.0014791042,-0.000205695632,0.004734517,-13440.0,30205.5,24705.5,
119.655,5.800631,6.7727736,5.329668,-0.008140668,-0.0004721582,0.004201592,-13440.0,30205.5,23937.5,
119.770,5.733593,6.729678,5.2602364,0.001451984,-0.006467562,-0.000727963636,-12928.0,30461.5,23425.5,
119.886,5.872457,6.8422056,5.090248,-0.008140668,-0.016193446,-0.004191975,-13440.0,30461.5,24193.5,
120.007,6.0568104,6.8278402,5.1812276,-0.00720804936,0.0029918552,-0.0016605817,-12928.0,30717.5,25729.5,
120.127,5.7934484,6.7248892,5.4637436,-0.004809886,0.0076549464,-0.0053910568,-13440.0,30461.5,24449.5,
120.244,5.7695064,6.77037936,5.1285552,0.00185167792,0.012850966,-0.0045916692,-13440.0,30717.5,24961.5,
120.364,5.6569784,6.7943216,5.3464276,-0.002811417,0.006056171,-0.0016605817,-13440.0,30205.5,24449.5,
120.481,5.74317,6.72010136,5.3224856,-0.0068083555,0.005656477,-0.001793813,-13184.0,29693.5,24961.5,
120.605,5.7503524,6.6817936,5.3488216,-0.00094617908,0.0031250828,-0.0029928944,-12928.0,29949.5,24705.5,
120.723,5.7383816,6.741649,5.293755,-0.0049431176,0.010452803,-0.0029928944,-13184.0,30461.5,23937.5,
120.840,5.8317556,6.6099676,5.2841784,-0.0045434236,0.003924474,-0.000727963636,-12928.0,30205.5,24449.5,
120.958,5.7719008,6.7081304,5.363187,-0.0062754304,0.0041909368,-0.0052578252,-12672.0,30205.5,22913.5,
121.076,5.74317,6.698553,5.2841784,-0.005609274,0.0041909368,-0.0009944253,-13184.0,30461.5,23425.5,
121.196,5.7407756,6.75840836,5.3344564,-0.0050763636,-0.00380293668,-0.0021935068,-13184.0,30205.5,23937.5,
121.316,5.7934484,6.6698228,5.341639,-0.0017455816,0.00179276984,-0.00046150108,-13440.0,30205.5,23681.5,
121.435,5.7958428,6.6578516,5.2746016,0.0011855215,0.0023256988,0.000337886632,-12928.0,30461.5,23681.5,
121.560,5.759929,6.674611,5.315303,-0.00694158636,0.0024589264,-0.0011276575,-13696.0,29949.5,23681.5,
121.683,5.735987,6.6913704,5.3224856,-1.3560057e-05,0.0027253888,0.0014037369,-12928.0,29949.5,23937.5,
121.801,5.7144392,6.6075736,5.4445896,-0.00094617908,0.00072692332,-0.0005947314,-12928.0,29693.5,23681.5,
121.919,5.74317,6.6650344,5.3129088,-0.0013458729,0.0053900144,-0.0008611949,-13696.0,30205.5,23425.5,
122.036,5.747958,6.6698228,5.27939,-0.0010794252,0.00179276984,-0.0025932006,-13440.0,30205.5,24449.5,
122.153,5.8078136,6.696159,5.3488216,0.000919044,-0.00380293668,-0.0008611949,-12416.0,29949.5,23681.5,
122.276,5.83415,6.6650344,5.327274,-0.007474512,0.0009933859,-0.0005947314,-12672.0,30205.5,23681.5,
122.390,5.724016,6.6650344,5.2961492,-0.0038772672,0.00019399822,-0.004458438,-12672.0,30461.5,23169.5,
122.507,5.724016,6.727284,5.2841784,-0.0005464852,6.0766936e-05,-0.0015273513,-12928.0,30717.5,23937.5,
122.623,5.7503524,6.6434864,5.2746016,-0.003344342,0.00179276984,7.142406e-05,-13440.0,29949.5,24193.5,
122.740,5.6928916,6.6291212,5.3248796,-0.007474512,0.0019260049,0.00193666116,-12672.0,29949.5,23681.5,
122.866,5.7383816,6.6650344,5.3488216,-0.0068083555,-0.0051352492,-0.0015273513,-12928.0,29693.5,24449.5,
122.986,5.745564,6.6674284,5.3105144,-0.0029446482,0.004857093,0.0018034298,-13696.0,30205.5,24449.5,
123.103,5.7288048,6.650669,5.291361,-0.003344342,0.0032583176,-0.0025932006,-13184.0,30717.5,23937.5,
123.219,5.747958,6.624333,5.3200912,-0.0062754304,-0.0010050833,-0.0020602756,-13440.0,30717.5,24449.5,
123.337,5.764718,6.6530632,5.3607924,-0.002811417,0.008321103,-0.0001950385,-12672.0,30461.5,24705.5,
123.458,5.7719008,6.6554576,5.303332,-0.0017455816,0.0021924674,-0.0013941191,-13184.0,29949.5,24449.5,
123.576,5.824573,6.715313,5.363187,-0.00720804936,0.0021924674,7.142406e-05,-12928.0,30461.5,23937.5,
123.693,5.759929,6.703342,5.3368508,-0.0026781856,0.0068555624,-0.003259357,-13952.0,29693.5,23937.5,
123.809,5.7503524,6.6817936,5.2650248,-0.0068083555,0.004857093,-0.00339258784,-13696.0,29437.5,23681.5,
123.929,5.747958,6.6650344,5.269813,-0.0017455816,0.0041909368,-0.00339258784,-13184.0,29949.5,24449.5,
124.052,5.69768,6.6099676,5.365581,-0.0032111108,0.0011266135,-0.0021935068,-12928.0,30461.5,25217.5,
124.169,5.7383816,6.6937648,5.367975,-0.00414373,0.004723858,0.00073758052,-12672.0,30205.5,24449.5,
124.284,5.724016,6.648275,5.3200912,-0.003344342,0.0029918552,-0.002726432,-13440.0,29693.5,24961.5,
124.399,5.7503524,6.626727,5.3464276,-0.0005464852,0.0031250828,-0.0013941191,-12928.0,29181.5,24705.5,
124.516,5.83415,6.6913704,5.3105144,-0.0073412808,0.00059369208,-0.0036590504,-12928.0,29949.5,24193.5,
124.640,5.886822,6.6674284,5.2362944,-0.012936994,0.024708546,-0.009387994,-12928.0,29949.5,24193.5,
124.756,5.683315,6.6793996,5.3320624,0.0039833636,-0.013262358,0.00606683,-13440.0,30205.5,25217.5,
124.872,5.7048624,6.715313,5.3129088,-0.0032111108,0.006189406,-0.0015273513,-12672.0,30205.5,25217.5,
124.989,5.8652744,6.7344664,5.1692568,-0.010005906,0.0168479016,-0.0052578252,-12416.0,29949.5,24961.5,
125.107,5.8437268,6.624333,5.2602364,0.0059818328,-0.0048687904,0.0022031236,-13184.0,29949.5,24193.5,
125.230,5.8533032,6.6458808,5.293755,0.00358368436,-0.009798348,0.0026028176,-13696.0,29693.5,23681.5,
125.347,5.8269672,6.7081304,5.221929,-0.011871144,0.010186341,-0.004458438,-13696.0,30205.5,24961.5,
125.464,5.7168336,6.7129187,5.403888,-0.010005906,0.021377762,0.00020465534,-13440.0,29693.5,24961.5,
125.583,5.755141,6.6698228,5.365581,0.0069144664,-0.010730963,-0.0015273513,-13440.0,30205.5,25473.5,
125.701,5.6928916,6.626727,5.365581,-0.0038772672,-0.0019377023,-0.0020602756,-13440.0,30717.5,24449.5,
125.825,5.7934484,6.705736,5.35361,-0.0054760424,0.0016595423,-0.007389525,-13440.0,29949.5,24705.5,
125.940,5.700074,6.6554576,5.4182532,-0.007874206,-0.000205695632,0.00073758052,-13184.0,30205.5,25217.5,
126.058,5.774295,6.660246,5.35361,-0.0017455816,-0.006467562,-0.0009944253,-13184.0,30205.5,24449.5,
126.172,5.724016,6.6770052,5.367975,-0.0050763636,-0.005002022,-0.0021935068,-13440.0,30205.5,24449.5,
126.287,5.7503524,6.6530632,5.3200912,0.00185167792,-0.017126064,0.004334824,-13184.0,30717.5,24449.5,
126.410,5.712045,6.648275,5.3943116,-0.00720804936,0.0025921612,-0.0024599694,-13184.0,30205.5,23937.5,
126.528,5.7527468,6.684188,5.3607924,-0.0010794252,-0.006467562,-0.002726432,-13952.0,30205.5,24449.5,
126.644,5.673738,6.638698,5.411071,-0.004676655,-0.004069403,-0.0063236756,-13696.0,29693.5,24705.5,
126.759,5.759929,6.6698228,5.317697,-0.005609274,0.0064558648,-0.0020602756,-13440.0,29949.5,24449.5,
126.875,5.759929,6.684188,5.3344564,0.000119671224,-0.0016712397,-0.0003282698,-12672.0,30205.5,24705.5,
126.998,5.721622,6.600391,5.375158,-0.005609274,0.0033915452,0.00020465534,-13184.0,29437.5,24705.5,
127.113,5.776689,6.6315156,5.35361,0.0005193651,-0.0006053895,-0.001793813,-13952.0,29437.5,24705.5,
127.228,5.7719008,6.6674284,5.3847348,-0.0032111108,0.00805464,-0.0031261258,-13696.0,29949.5,24449.5,
127.345,5.7814776,6.6219388,5.3200912,-0.0020120292,0.008587565,0.0015369672,-13696.0,30205.5,24705.5,
127.462,5.757535,6.6674284,5.4086768,-0.00081294776,0.0024589264,-0.0015273513,-13184.0,30717.5,24193.5,
127.585,5.712045,6.6171504,5.3368508,-0.004809886,0.007122021,-0.003259357,-13184.0,29949.5,23937.5,
127.700,5.733593,6.7081304,5.305726,-0.001878798,0.00738848368,-0.0012608878,-13184.0,30461.5,24961.5,
127.817,5.74317,6.6434864,5.305726,-0.006675124,0.0041909368,-0.0003282698,-12672.0,29693.5,24961.5,
127.932,5.798237,6.6650344,5.327274,-0.006142199,0.0025921612,-0.007123063,-12928.0,29949.5,24193.5,
128.047,5.7383816,6.703342,5.4445896,-0.001878798,-0.008199573,0.0012705056,-13184.0,29437.5,24449.5,
128.168,5.6928916,6.6698228,5.329668,-0.0026781856,0.0044573956,-0.00046150108,-13696.0,30205.5,24705.5,
128.286,5.8030252,6.6410924,5.2650248,-0.00414373,0.0077881776,0.0011372734,-13952.0,29949.5,24193.5,
128.403,5.812602,6.5860256,5.3607924,-0.0060089676,-0.0022041648,-0.0001950385,-13184.0,30461.5,24705.5,
128.520,5.810208,6.6793996,5.3727636,-0.0044102072,0.0016595423,-0.0019270442,-12928.0,29949.5,24449.5,
128.638,5.707257,6.73207236,5.351216,-0.008407116,0.00072692332,-0.0009944253,-13696.0,30461.5,24705.5,
128.759,5.7958428,6.612362,5.27939,-0.001878798,0.0036580116,-0.002326738,-13440.0,30461.5,25217.5,
128.874,5.800631,6.6889764,5.3009376,-0.00520958,0.0023256988,-0.002326738,-13184.0,29949.5,24961.5,
128.990,5.700074,6.6291212,5.379946,-0.0013458729,-0.0012715459,0.0034022052,-13696.0,29949.5,24705.5,
129.106,5.7503524,6.729678,5.291361,-0.0010794252,0.0044573956,-0.0037922818,-13952.0,29693.5,24449.5,
129.224,5.735987,6.6195444,5.3727636,-0.00028002262,-0.003669709,-0.0003282698,-13184.0,29693.5,23937.5,
129.346,5.7527468,6.590814,5.3224856,0.0013187528,0.0020592324,0.00020465534,-13696.0,30205.5,25217.5,
129.464,5.8437268,6.6770052,5.315303,-0.0022784918,0.010053109,-0.0052578252,-12928.0,30717.5,24705.5,
129.581,5.700074,6.626727,5.439801,0.0002528876,0.0003272295,7.142406e-05,-13184.0,30205.5,24449.5,
129.696,5.7048624,6.660246,5.3488216,-0.0029446482,-0.0052684844,0.005134211,-13696.0,30461.5,23681.5,
129.812,5.7264104,6.648275,5.339245,-0.0032111108,-0.0011383183,0.001004043,-13184.0,30717.5,25217.5,
129.935,5.798237,6.6817936,5.3320624,-0.00014679134,0.0031250828,-0.0008611949,-13184.0,30973.5,24193.5,
130.052,5.7790832,6.5932084,5.3081204,0.0010522902,0.004723858,-0.0047249004,-12928.0,30973.5,24193.5,
130.169,5.712045,6.6410924,5.5068392,-0.0049431176,0.004857093,-0.003259357,-13952.0,30717.5,24705.5,
130.285,5.719228,6.6770052,5.391917,-0.0032111108,-0.0032700152,-0.0009944253,-12928.0,31485.5,24193.5,
130.401,5.709651,6.6698228,5.351216,-0.0014791042,0.005123552,7.142406e-05,-13952.0,31229.5,24705.5,
130.523,5.759929,6.636304,5.317697,-0.00081294776,0.0028586238,-0.0011276575,-13696.0,30461.5,24449.5,
130.640,5.747958,6.650669,5.403888,-0.0004132688,6.0766936e-05,0.0011372734,-13184.0,29949.5,24705.5,
130.755,5.7790832,6.650669,5.3488216,-0.003344342,0.008987259,-0.0025932006,-13184.0,31229.5,24193.5,
130.871,5.7671124,6.6698228,5.341639,-0.0038772672,0.0055232496,-0.0016605817,-13440.0,29949.5,24961.5,
130.989,5.712045,6.6434864,5.3943116,-0.00347757336,0.005656477,0.0024695872,-13440.0,29949.5,25217.5,
131.113,5.6904976,6.6650344,5.3703692,-0.002811417,0.0021924674,-0.0028596632,-12928.0,30461.5,24961.5,
131.231,5.7695064,6.648275,5.341639,-0.0030778944,0.005123552,-0.000727963636,-13440.0,30973.5,24193.5,
131.348,5.7288048,6.6578516,5.356004,-0.008673593,0.0023256988,-0.0047249004,-13440.0,29949.5,24193.5,
131.465,5.733593,6.6913704,5.3320624,-0.002411738,0.0009933859,-0.0019270442,-13440.0,29693.5,23937.5,
131.581,5.7671124,6.626727,5.3440332,-0.0038772672,0.008854028,-0.0009944253,-13184.0,30461.5,24705.5,
131.703,5.724016,6.6578516,5.356004,-0.0044102072,0.0016595423,-0.003925513,-13440.0,30205.5,24449.5,
131.819,5.755141,6.686582,5.3440332,-0.00361080468,0.0020592324,-0.0025932006,-14208.0,30717.5,25217.5,
131.937,5.7144392,6.626727,5.3583984,-0.0038772672,0.0020592324,-0.0008611949,-13696.0,30205.5,24449.5,
132.054,5.759929,6.684188,5.2722072,0.0021181404,0.0041909368,7.142406e-05,-12928.0,29949.5,23681.5,
132.170,5.735987,6.6530632,5.315303,-0.0021452606,-0.0012715459,-0.0009944253,-13184.0,30717.5,24961.5,
132.293,5.712045,6.6770052,5.3727636,-0.004676655,0.005256787,-0.0016605817,-13696.0,30461.5,24705.5,
132.409,5.7790832,6.6770052,5.3344564,-0.008673593,0.00059369208,-0.0031261258,-12672.0,30461.5,24193.5,
132.527,5.7503524,6.5836316,5.411071,-0.0016123354,0.0021924674,-0.000727963636,-12416.0,30461.5,24961.5,
132.646,5.747958,6.6410924,5.379946,0.0005193651,-0.000871852064,0.000337886632,-13440.0,29437.5,23937.5,
132.764,5.74317,6.6793996,5.3727636,-0.0021452606,0.005656477,-0.005124594,-13440.0,30205.5,24449.5,
132.891,5.719228,6.686582,5.4062824,-0.0044102072,0.001526311,0.0014037369,-13184.0,29949.5,24193.5,
133.007,5.7671124,6.705736,5.4086768,-0.0050763636,-0.0004721582,-0.003259357,-12928.0,29949.5,23937.5,
133.123,5.721622,6.6171504,5.375158,-0.007074803,0.0027253888,-0.0019270442,-13440.0,29949.5,22913.5,
133.239,5.759929,6.6793996,5.379946,-0.0038772672,-0.0023373962,-6.180722e-05,-12672.0,30205.5,24193.5,
133.356,5.7407756,6.614756,5.3943116,-0.0022784918,0.001526311,-0.0008611949,-13440.0,30205.5,23425.5,
133.478,5.7934484,6.650669,5.365581,-0.0049431176,0.00698879,-0.0015273513,-12672.0,30205.5,24449.5,
133.594,5.759929,6.8038984,5.2985436,-0.0044102072,0.0105860344,-0.003925513,-13440.0,30461.5,25217.5,
133.712,5.659373,6.6291212,5.365581,0.0003861338,-0.0048687904,0.0006043492,-13952.0,29949.5,23681.5,
133.828,5.824573,6.6554576,5.3081204,-0.0053428112,6.0766936e-05,0.00020465534,-13184.0,29949.5,23937.5,
133.946,5.7623232,6.648275,5.3344564,0.0002528876,-0.0035364776,-0.0016605817,-13440.0,30717.5,23681.5,
134.069,5.74317,6.6434864,5.341639,-0.0022784918,0.0027253888,0.0016701994,-13696.0,30205.5,22657.5,
134.185,5.757535,6.6410924,5.403888,-0.0013458729,0.00059369208,-0.0024599694,-13696.0,29949.5,23425.5,
134.303,5.745564,6.6793996,5.3224856,-0.0037440508,0.0012598485,-0.0036590504,-13184.0,30205.5,23169.5,
134.421,5.7671124,6.5932084,5.2889668,-0.0020120292,-0.0011383183,-0.0013941191,-13696.0,30205.5,24193.5,
134.539,5.731199,6.6578516,5.3488216,0.003317222,-0.0024706236,-0.0003282698,-13440.0,30205.5,24193.5,
134.661,5.724016,6.6410924,5.3583984,-0.008007437,0.00179276984,-0.0048581316,-13184.0,29949.5,23425.5,
134.779,5.764718,6.6554576,5.35361,0.0005193651,-0.0032700152,-0.0003282698,-13696.0,30205.5,23937.5,
134.893,5.7288048,6.684188,5.387129,-0.0062754304,0.0027253888,0.000337886632,-13696.0,30461.5,24449.5,
135.011,5.731199,6.6339096,5.339245,-0.00067971648,0.0043241644,0.0035354364,-13952.0,30461.5,24449.5,
135.128,5.7407756,6.6434864,5.3823404,-0.010938525,-0.00273709,-0.0005947314,-13184.0,30205.5,23425.5,
135.250,5.776689,6.6578516,5.3129088,-0.0016123354,0.0019260049,-0.0003282698,-12928.0,30461.5,24193.5,
135.369,5.7144392,6.626727,5.3224856,-0.0014791042,0.0013930798,-0.0009944253,-12928.0,29949.5,24193.5,
135.486,5.7168336,6.660246,5.3320624,0.001451984,0.00725525236,-0.0028596632,-13440.0,29949.5,23169.5,
135.603,5.7623232,6.6291212,5.3464276,-0.00520958,0.001526311,0.000337886632,-13696.0,29437.5,24193.5,
135.720,5.7814776,6.612362,5.315303,-0.004809886,0.007122021,-0.0015273513,-13696.0,29693.5,23681.5,
135.841,5.676132,6.660246,5.341639,0.00185167792,-0.0022041648,0.003268974,-13184.0,29949.5,24449.5,
135.957,5.745564,6.6770052,5.3607924,-0.0016123354,-0.0022041648,-6.180722e-05,-13696.0,30205.5,25217.5,
136.074,5.7168336,6.703342,5.356004,-0.0068083555,0.00738848368,-0.002326738,-13184.0,29693.5,25217.5,
136.192,5.69768,6.6578516,5.403888,-0.004676655,0.0033915452,-6.180722e-05,-13696.0,30205.5,24961.5,
136.307,5.724016,6.6674284,5.3727636,-0.0049431176,-0.000871852064,0.0016701994,-13440.0,30461.5,24961.5,
136.431,5.8054196,6.6793996,5.3081204,-0.0010794252,-0.0035364776,0.0016701994,-13184.0,30205.5,25473.5,
136.549,5.685709,6.76798536,5.363187,-0.010805294,0.008321103,-0.0048581316,-13440.0,30205.5,25217.5,
136.666,5.858092,6.686582,5.303332,-0.0050763636,0.004723858,-0.0016605817,-13184.0,30717.5,24449.5,
136.782,5.724016,6.6650344,5.3703692,-0.00014679134,0.0029918552,0.003268974,-14208.0,29949.5,24705.5,
136.898,5.6306424,6.6793996,5.401494,0.0015852153,0.005123552,-0.0053910568,-13696.0,30205.5,25473.5,
137.020,5.7168336,6.6075736,5.403888,-0.007607743,0.0008601546,-0.0016605817,-13440.0,30717.5,24705.5,
137.137,5.755141,6.7105244,5.351216,-0.0058757364,0.00019399822,-0.0021935068,-13696.0,30461.5,24705.5,
137.254,5.7383816,6.6530632,5.387129,0.00065259636,-0.0026038588,-6.180722e-05,-13440.0,29949.5,23937.5,
137.371,5.755141,6.6578516,5.3368508,-0.002411738,0.008720797,-0.0025932006,-13440.0,30205.5,23937.5,
137.487,5.759929,6.6554576,5.3583984,-0.0068083555,-0.0006053895,0.000337886632,-12672.0,30205.5,24449.5,
137.612,5.74317,6.6793996,5.3129088,-0.0013458729,0.0040577016,-0.00339258784,-14208.0,30717.5,24961.5,
137.731,5.7168336,6.626727,5.411071,-0.0032111108,0.0016595423,-0.0013941191,-13440.0,30205.5,24449.5,
137.848,5.7407756,6.696159,5.3009376,-0.0044102072,0.00059369208,-6.180722e-05,-13696.0,30205.5,25217.5,
137.965,5.755141,6.674611,5.329668,-0.0045434236,0.004723858,0.00087081176,-13184.0,30461.5,24705.5,
138.080,5.7934484,6.672217,5.375158,-0.007474512,0.006056171,0.002336355,-14208.0,30461.5,23937.5,
138.201,5.800631,6.6913704,5.317697,0.0003861338,-0.0030035526,0.0022031236,-13440.0,30461.5,24193.5,
138.317,5.700074,6.602785,5.387129,-0.0029446482,0.0049903208,-0.0013941191,-13440.0,30461.5,24961.5,
138.434,5.7623232,6.626727,5.3440332,-0.0012126416,0.0016595423,-0.001793813,-13440.0,30205.5,24449.5,
138.550,5.7407756,6.66264,5.3967056,-0.0068083555,0.005256787,-0.0013941191,-13952.0,30461.5,24705.5,
138.668,5.724016,6.6578516,5.468532,-0.0026781856,0.00725525236,7.142406e-05,-13184.0,30205.5,24961.5,
138.791,5.774295,6.6339096,5.3248796,-0.0064086468,0.004857093,-0.004458438,-13696.0,30205.5,24705.5,
138.907,5.733593,6.6674284,5.3943116,0.0003861338,0.0032583176,-0.0020602756,-13440.0,30205.5,25729.5,
139.023,5.759929,6.6554576,5.3943116,-0.0029446482,0.0011266135,0.00193666116,-13696.0,29949.5,25217.5,
139.141,5.786266,6.6674284,5.3943116,-0.0053428112,0.003791239,-6.180722e-05,-13440.0,30461.5,24193.5,
139.257,5.786266,6.686582,5.35361,-0.0012126416,0.0044573956,0.0039351304,-13184.0,30461.5,24961.5,
