# epoch_start_s=1609461608
timestamp_s,accel_x,accel_y,accel_z,gyro_x,gyro_y,gyro_z,mag_x,mag_y,mag_z,wind_vane_deg
# wind_vane_deg is blank for the first 270 s, populated for the final 30 s
0.114,-0.48414856,-7.920442,9.517127,-0.111128408,-0.23975546,-0.2039056,-12672.0,-10499.5,-636.5,
0.231,-2.5982288,-8.835027,8.363122,0.15533406,0.36324912,-0.37497452,-9856.0,-11011.5,-3452.5,
0.347,0.7225291,-4.8343164,6.0910244,-0.18307326,0.7937193,0.09892901,-11136.0,-11779.5,-636.5,
0.463,1.3809345,-5.0976788,6.838015,0.69811816,0.349926,-0.11557329,-17792.0,-12291.5,3971.5,
0.585,0.7249233,-3.1990762,5.2769956,0.6774673,0.3375355,-0.09305721,-21120.0,-21507.5,13699.5,
0.700,0.69140448,-3.1823168,10.182715,0.15480114,-0.26320416,0.807585968,-22912.0,-27907.5,19075.5,
0.818,-6.2852992,-5.25809,11.090117,-0.18547146,-0.2581414,0.83050176,-27008.0,-26627.5,18563.5,
0.933,3.272354,-5.741719,13.125189,-0.12351893,0.05415265,0.903246,-31360.0,-21507.5,15491.5,
1.053,-0.44105296,-0.28772706,5.1572856,0.8148287,-0.6449117,0.226298052,28288.0,-22275.5,18563.5,
1.177,-0.18726754,-5.210206,6.622537,-0.7495725,-0.39004028,0.6116028,31872.0,-27395.5,22915.5,
1.291,2.89407,-7.4152652,10.13962,-0.5058926,-0.2143083,-0.15314451,31872.0,-18947.5,15235.5,
1.406,-3.8767324,-6.6874284,8.585782,0.343589784,0.4549122,-0.37697296,30848.0,-16131.5,10627.5,
1.523,-3.43859336,-5.722565,9.766124,1.2807382,0.64863044,-0.235481416,28544.0,-23555.5,18051.5,
1.641,-1.604635,-3.1775284,6.9170236,1.0693004,1.0532536,-0.14381832,21632.0,27132.5,30083.5,
1.764,-2.1553014,-0.22068942,6.050323,0.6969191,-0.24042164,-0.336337416,13440.0,12796.5,-25724.5,
1.882,1.3091085,2.1950602,9.2106696,0.193038516,-1.0771139,-0.7577479,21888.0,5116.5,-20604.5,
2.000,-3.654072,2.4943354,12.617619,0.005582154,-0.37791628,0.03138077,-29568.0,1276.5,-22908.5,
2.118,-3.505631,-0.041124284,10.477201,0.11722993,-0.110387932,0.238155652,-25984.0,1788.5,-25212.5,
2.237,0.79196092,-0.5870023,9.284889,0.4736235,0.19497808,0.13596728,-24448.0,-515.5,-24189.5,
2.353,-0.52963836,-0.6300979,7.585006,0.04208751,0.011651885,-0.3715105,-26752.0,-5635.5,-21629.5,
2.473,-0.60864704,-0.421802336,9.71824,-0.474316768,-0.7726804,-0.5994692,-23680.0,-5635.5,-22653.5,
2.589,-2.1600898,-1.4537034,11.403758,-0.101669,-0.13703418,-0.66808324,-13696.0,-2563.5,-26237.5,
2.706,-2.3971156,-2.162387,9.325591,0.15706608,-0.1682103,-0.40148752,-8320.0,-3075.5,-28797.5,
2.821,1.3761461,-0.51996464,9.943295,0.24220084,0.5247254,-0.29277084,-6272.0,-6915.5,-29821.5,
2.937,-0.35246748,-0.62052108,7.8818872,0.32840144,0.00698879,-0.0640128,-10112.0,-12547.5,-26493.5,
3.058,0.18383372,-0.476869,9.220246,0.10830344,-0.3146314,-0.17579382,-8832.0,-16643.5,-25213.5,
3.173,0.39931188,-0.32842848,12.3398904,0.069266684,-0.13010615,0.022987198,-3712.0,-17667.5,-28285.5,
3.292,-3.5990052,1.1056984,11.9975192,0.109635752,-0.08574015,0.07534707,-2432.0,-19459.5,-29309.5,
3.410,-1.8560262,1.78565168,10.149197,0.20982564,-0.16674476,-0.044960732,-2176.0,-22019.5,-28541.5,
3.528,-1.7602582,-0.16562277,8.030328,-0.29298908,-0.0718841,-0.23588112,1664.0,-24066.5,-29821.5,
3.650,-0.098682104,0.7393855,9.823585,0.2600538,0.18325372,0.24335166,2432.0,-22530.5,-29309.5,
3.765,2.384105,-0.52954144,10.1061,0.04914877,0.8756565,-0.009787688,-1408.0,-23555.5,-27005.5,
3.879,2.8916756,-0.239843016,9.05744,-0.06902735,0.7208418,-0.011919388,-12416.0,-24835.5,-22653.5,
3.995,-0.402745668,-0.52475304,9.591347,-0.072091656,0.098518652,-0.208302224,-19584.0,-23811.5,-19837.5,
4.114,2.1375022,-0.438561736,9.064623,0.09817786,-0.10319345,-0.26905566,-19840.0,-23811.5,-19837.5,
4.237,-0.52006156,1.2924461,9.409388,-0.041315244,-0.34114444,-0.2973007,-17280.0,-25603.5,-20861.5,
4.354,0.19341052,0.9644404,12.112442,-0.222376516,-0.35859776,-0.054553384,-12416.0,-25603.5,-21885.5,
4.471,-1.0156612,2.3339238,9.830768,-0.048376516,0.37883716,0.3496702,-11136.0,-23299.5,-23933.5,
4.587,-0.27585304,1.81917036,9.701481,-0.26980686,0.103714668,0.21190908,-16768.0,-20995.5,-21373.5,
4.707,0.39931188,1.5773561,8.84675,-0.11845614,0.34020012,0.37152012,-19840.0,-17411.5,-21117.5,
4.829,0.8542102,-0.3356111,9.019133,-0.5265434,-0.0015380084,0.30037466,-25472.0,-13827.5,-20605.5,
4.944,1.421636,-0.26139084,9.730211,-0.4302172,0.09292294,-0.030438528,-27264.0,-8451.5,-22397.5,
5.058,-2.1768492,-2.176752,12.038221,0.02343513,0.2134972,0.10479118,-26752.0,-4867.5,-23677.5,
5.174,-5.0881988,-2.365894,10.489173,0.346920568,0.12982799,0.40282948,-28288.0,-6147.5,-22397.5,
5.292,-1.8392668,-1.0203528,8.980825,0.26738156,-0.054697268,0.7959948,-30080.0,-8195.5,-19325.5,
5.408,-1.250293,-0.30448648,8.6935216,0.30402014,0.2011067,0.38617556,30080.0,-10755.5,-19325.5,
5.530,-0.9941135,0.06661479,6.919418,0.12895428,-0.34674012,0.37671616,26752.0,-18691.5,-18045.5,
5.645,1.3569925,0.207872684,9.754153,-0.2723382,-0.912173536,0.096264384,-30080.0,-20483.5,-17533.5,
5.763,-3.72110936,-0.82642248,15.169837,0.0043830724,0.77373452,-0.14528386,-21120.0,-12035.5,-21373.5,
5.881,-2.6293532,3.344277,11.846685,-0.28765982,0.42533488,0.7899994,-29824.0,-10755.5,-19581.5,
5.997,-1.982919,1.019507,8.181163,0.13095274,-0.12317814,1.0804436,28032.0,-11011.5,-19069.5,
6.119,1.4886737,-0.09619093,7.728658,0.086986448,-0.27466208,1.5198402,30592.0,-9475.5,-17533.5,
6.235,0.1503149,1.3642721,8.753377,-0.34241784,-0.246417,1.4131219,24960.0,-4867.5,-18045.5,
6.350,-3.49605416,-0.055489496,14.046957,-0.029590904,0.2779811,0.56710356,21120.0,-4611.5,-20349.5,
6.468,-4.8535668,0.55742616,11.506708,0.07499562,0.110243,-0.484224136,18304.0,-5635.5,-22141.5,
6.584,1.9723024,0.0211249584,11.580929,0.1452085,0.06427822,-1.0234109,21632.0,-4867.5,-20349.5,
6.707,-1.0108728,-0.055489496,8.284113,0.17025596,-0.056962208,-0.93001584,24960.0,-4611.5,-19069.5,
6.824,0.1479207,1.0219012,8.003991,-0.022263184,-0.7985273,-0.9126958,29568.0,-5891.5,-18557.5,
6.939,1.8645632,1.3331475,11.030262,0.050081388,-0.9606697,-0.4168091,-22656.0,-5123.5,-21629.5,
7.055,0.27481338,-0.7785384,11.81556,0.2847016,-0.064956084,-0.36271724,-11648.0,-7427.5,-26493.5,
7.170,1.3426273,0.06661479,14.310319,-0.28552812,0.2846427,0.15501934,-10624.0,-12291.5,-26237.5,
7.293,0.89251748,-1.4776454,12.92647,0.10297419,-0.14729298,0.018190872,-16256.0,-9987.5,-26237.5,
7.411,-2.4330288,-0.428984936,10.905764,0.1699895,-0.25054724,0.023386892,-11648.0,-13571.5,-26749.5,
7.529,-1.1569192,5.848612,11.305595,-0.22810544,-0.03564521,0.00766560536,-3968.0,-15875.5,-28285.5,
7.646,-4.2310744,0.459263868,6.3926936,0.16665872,1.0765692,0.232693152,-5760.0,-11779.5,-26237.5,
7.766,-2.6724488,-0.9676804,2.6170376,-0.046511264,0.41147888,0.050699296,-19584.0,-9987.5,-20861.5,
7.888,-1.3747916,1.2996287,4.149327,0.4579022,0.0901250832,-0.0113864624,-27264.0,-10755.5,-19069.5,
8.007,-0.66610784,2.2836456,7.472479,1.0606403,1.0079551,-0.41600972,-31360.0,-19715.5,-16765.5,
8.124,-7.1304532,7.6298976,11.126031,-0.575839,0.60266568,-0.8320909,20864.0,31996.5,-13949.5,
8.239,-5.521549,1.9077558,13.637548,-1.1267502,0.303828,-0.424803,12416.0,-26115.5,-14205.5,
8.354,-3.56309216,-1.3148396,12.009491,-0.69934432,-0.27799284,-0.11970346,11136.0,-11267.5,-17789.5,
8.473,-0.53442676,-1.93014932,10.558604,-0.07822029,-0.7790755,-0.11823791,17792.0,-1027.5,-19069.5,
8.596,1.0481405,-0.3332169,8.320026,0.5301135,-0.5765641,0.07734554,30080.0,-771.5,-18813.5,
8.710,0.33227424,-0.08182572,7.4700848,0.5554275,0.13409139,0.52899944,-31104.0,-6915.5,-18813.5,
8.826,-0.8432788,-0.68995292,8.784501,0.24060206,0.55243752,0.496091336,30592.0,-12547.5,-15485.5,
8.943,-2.945388,-0.83839348,10.40777,0.355314132,0.5090041,0.22016942,21376.0,-15619.5,-15741.5,
9.060,-4.525561,1.5749619,10.489173,0.3093494,-0.22629912,0.199252132,15744.0,-19715.5,-14205.5,
9.184,-2.3085304,0.89979692,10.321579,0.374233,-0.54845224,-0.56736048,18560.0,-24323.5,-14205.5,
9.300,0.03060478,0.37307262,10.300031,0.084588268,-0.6333205,-1.2075366,25728.0,-29443.5,-14717.5,
9.417,0.8494218,0.6220696,9.74697,0.115497928,-0.36219496,-1.2557663,-30848.0,-32259.5,-16253.5,
9.534,0.83505656,1.934092,9.162786,-0.011204988,-0.08973709,-1.15078,-27520.0,27388.5,-16765.5,
9.647,0.02821058,3.0090888,9.907382,-0.044512792,-0.27173096,-0.9055013,-24960.0,25596.5,-18045.5,
9.768,1.1893984,4.816711,9.655991,0.3922192,-0.10625775,-0.32168204,-22400.0,20732.5,-20093.5,
9.883,-0.24712258,3.760868,11.564169,0.24992824,-0.117982104,-0.03710009,-20608.0,15100.5,-19581.5,
10.001,-0.63737744,1.9293036,10.654373,-0.040649088,-0.5463205,0.034311852,-17280.0,9980.5,-22397.5,
10.118,0.33227424,2.0011298,10.637613,-0.39877468,-0.20258394,0.32768704,-10624.0,10492.5,-25213.5,
10.236,-0.25909358,2.7912164,7.6472552,-0.98259396,-0.66356396,0.5380591,-6784.0,20220.5,-24445.5,
10.361,1.3258679,-1.5111642,9.993573,-0.2574163,0.25040228,1.2882843,-128.0,-28931.5,-29053.5,
10.478,-0.65413684,2.9420512,10.019909,0.3631748,0.60253244,0.9962414,-4480.0,-19459.5,-25725.5,
10.594,-1.484925,0.79205792,6.8787165,0.229144176,0.8440807,0.6632965,-15488.0,-19203.5,-20605.5,
10.712,-2.3061362,0.22942052,7.67838,-0.117923184,0.441322632,0.18472992,-26752.0,-19459.5,-15997.5,
10.830,-1.6573074,0.41616824,8.269748,-0.18227388,-0.05602958,-0.0281736,32384.0,-16899.5,-15485.5,
10.951,-0.57752248,1.2565332,9.126872,0.13987924,-0.405095468,-0.0810664,32128.0,-13827.5,-15997.5,
11.067,0.67943348,1.4241271,11.233769,0.62990376,-0.4326743,-0.045360428,-29056.0,-16899.5,-17021.5,
11.184,1.3067143,1.84550668,10.489173,0.6850615,-0.098930048,0.122777392,-25728.0,-29443.5,-18813.5,
11.303,-0.48175436,2.3195586,11.466007,-0.33442396,-0.16634504,0.34980344,-24704.0,27132.5,-19069.5,
11.421,0.042575836,0.8399419,13.469954,-0.7559676,-0.40043236,0.3047713,-20608.0,32508.5,-20093.5,
11.537,0.35861044,-0.4840516,12.17948,-1.0619998,-0.220969868,-0.07213991,-13440.0,-20995.5,-24189.5,
11.659,-0.237545784,-2.1983,12.0214616,-0.938227936,0.22295664,-0.492218016,-10368.0,-2051.5,-27517.5,
11.779,-3.1345298,-2.5598244,12.270459,-0.3568068,0.47822768,-0.4653053,-14208.0,9468.5,-30588.5,
11.895,-5.0211608,-1.7074888,10.426924,0.07805994,0.37444056,-0.32727772,-20864.0,11772.5,-31100.5,
12.012,-5.3132532,-0.7713558,9.023921,0.13041982,-0.16741091,-0.51540024,-22400.0,6652.5,-30332.5,
12.128,-4.396274,-2.018735,7.510786,-0.2058558,-0.5806942,-0.2729194,-15744.0,2044.5,-30588.5,
12.247,1.6514792,-1.9469087,5.4613496,-0.0722249,0.013517121,-0.26199442,-6528.0,3068.5,31363.5,
12.371,0.4376191,-1.92296668,3.2562896,0.19796806,1.2383119,0.31876054,-8064.0,2556.5,-31612.5,
12.489,-4.6476656,-0.85036445,7.6592264,0.5674183,0.9938326,0.6334527,-24704.0,2300.5,-23164.5,
12.606,-3.9485584,-0.433773336,6.99124436,0.7857843,0.8091741,0.7536273,23168.0,-5635.5,-15997.5,
12.723,-3.4361992,0.5286957,9.565011,0.81949184,0.4855554,1.1774359,12160.0,-19459.5,-14205.5,
12.844,-2.7849764,2.6403816,10.637613,0.4600339,0.04056306,1.086439,4992.0,31484.5,-14205.5,
12.959,-1.3652148,3.7081956,10.6519784,-0.21758018,-0.51660996,0.48183556,7040.0,23804.5,-14461.5,
13.077,-0.73075132,3.059367,10.273695,-0.91904264,-0.83942932,0.0928003664,14464.0,27644.5,-12413.5,
13.195,0.11200768,1.81917036,11.111666,-1.5247118,-0.59201884,-0.29503578,23936.0,-21251.5,-14205.5,
13.314,-0.1465661,-1.1017556,12.801971,-1.2939553,-0.5019545,-0.4450541,29568.0,3068.5,-20348.5,
13.436,0.81350872,-3.5007458,10.889005,-0.40743464,-0.24268656,-0.29503578,-30848.0,19452.5,-31612.5,
13.556,0.519022,-2.6915054,8.750982,0.30242136,-0.007799879,-0.26012918,-28800.0,21244.5,31107.5,
13.673,0.590848,-1.2789266,8.212287,1.0778271,0.354855564,-0.13315982,-27264.0,13564.5,-30332.5,
13.790,0.26044816,0.44250448,7.9369532,1.2330415,0.58334716,0.37138692,-30592.0,-5891.5,-23421.5,
13.907,-1.1042468,1.4624343,8.3511508,0.8140293,0.58361364,0.69767016,28288.0,-23555.5,-17789.5,
14.029,-2.3851448,2.7792454,10.170744,0.185710784,0.203371632,0.9606686,22912.0,32252.5,-14973.5,
14.148,-2.3468376,2.4943354,11.324749,-0.07835354,-0.1610158,0.4409336,20352.0,-32515.5,-13949.5,
14.263,-1.403522,2.0681674,11.032657,-0.35987116,-0.2117769,0.046302664,19328.0,-28931.5,-14717.5,
14.380,-0.08431685,0.626858,9.687116,-0.66110692,0.038964288,-0.31875092,20096.0,-25347.5,-16509.5,
14.494,-1.0994584,0.717837636,8.1524312,-0.741178936,0.242808092,-0.436927016,21376.0,-18179.5,-16253.5,
14.621,-1.8488436,0.013942353,9.471637,-0.7121345,0.110243,-0.4112134,21120.0,-4355.5,-19325.5,
14.736,-2.6844198,-0.8910659,11.700639,-0.5438635,-0.10838947,-0.20257328,19328.0,8700.5,-23420.5,
14.852,-3.75462816,-3.2038646,12.976748,-0.305646,-0.27146452,0.017524716,18304.0,14588.5,-27004.5,
14.969,-1.9278522,-1.580596,11.729369,0.24446577,-0.3955028,0.022853966,22144.0,14076.5,-29052.5,
15.087,0.32988004,-0.3332169,9.205881,0.42779196,-0.34540784,0.40016484,31104.0,10236.5,-27260.5,
15.203,0.4376191,0.377861032,6.500433,0.45736928,-0.0452378536,0.5166089,32128.0,8956.5,-25212.5,
15.326,-1.4705598,0.87346077,8.336785,0.2449987,-0.26013982,0.6750209,27520.0,3068.5,-22396.5,
15.443,-1.2814176,0.67234784,9.735,0.18357908,-0.3883083,0.57376516,29824.0,-3843.5,-22653.5,
15.558,0.27960178,0.41137984,10.798025,0.111367752,-0.4200173,0.48743132,-29312.0,-3843.5,-23165.5,
15.676,2.0297632,0.385043616,10.728593,-0.022263184,-0.20218426,0.39976512,-28288.0,-515.5,-22653.5,
15.794,0.27960178,1.2158315,10.292849,-0.27300436,0.2356136,0.410290432,-30592.0,-771.5,-22909.5,
15.918,-0.8887686,0.8447303,10.539451,-0.459927736,0.53445124,0.45012656,31872.0,2300.5,-24188.5,
16.035,-2.2007912,0.30364078,10.264118,-0.39917432,0.7874574,0.45052628,22912.0,13308.5,-24956.5,
16.152,-2.4713362,0.092951016,9.174756,-0.15709321,0.8671297,0.4904956,7040.0,18172.5,-27004.5,
16.267,-2.5264028,-0.8934601,7.19953968,0.27324372,0.6425018,0.45478964,-5760.0,13307.5,-28540.5,
16.385,-1.0443919,-1.7146714,5.753442,0.7038471,0.08666107,0.6915415,-13184.0,4603.5,-26748.5,
16.506,-1.1281888,-0.012393862,5.947372,0.7451488,-0.3801812,0.6306549,-15488.0,-6660.5,-22397.5,
16.621,-1.1210062,1.9436688,7.58740036,0.371568368,-0.6237279,0.2703976,-14720.0,-17156.5,-18813.5,
16.739,-1.8943334,2.5302484,11.056599,-0.35147756,-0.767617636,0.07814493,-7552.0,-24580.5,-16253.5,
16.857,-1.1688902,1.3499069,14.324684,-0.9383611,-0.76028984,0.26267022,4736.0,-19715.5,-17533.5,
16.974,0.82547976,0.15280604,14.820284,-0.9435572,-0.3609959,0.54498716,14720.0,-4867.5,-19581.5,
17.096,1.0912361,0.18153646,12.80676,-0.28805952,0.41227824,0.703932036,15744.0,10492.5,-24700.5,
17.214,-0.80257748,1.6659415,10.067793,0.28483484,1.0555186,0.7817391,2944.0,13052.5,-25724.5,
17.331,-1.4921076,2.4033556,9.438118,0.491343268,1.0624466,0.7573577,-16256.0,5627.5,-24956.5,
17.448,-2.1337536,3.3299116,8.784501,0.3767644,0.5003441,0.5994788,-31104.0,-7172.5,-28797.5,
17.563,-2.447394,2.0968978,8.169191,0.11403238,-0.2815901,0.431474168,29312.0,-17412.5,-29309.5,
17.679,-2.1481188,2.0107066,7.5012092,0.13335091,-0.93655484,0.44866104,-31360.0,-24068.5,-27261.5,
17.806,-1.3484554,3.58848536,6.586624,0.4501748,-1.3302532,0.53286316,-16256.0,-29444.5,-20093.5,
17.923,1.7448532,2.9492338,6.076659,0.49467404,-1.0813773,0.5555124,384.0,29692.5,-16765.5,
18.039,2.3434036,2.300405,6.560288,0.34345656,-0.31769574,0.4879642,12928.0,24316.5,-14717.5,
18.154,2.180598,1.898179,7.728658,0.13508292,0.6009337,0.4306748,13184.0,18172.5,-14973.5,
18.269,0.91645944,2.702631,10.673527,-0.273937,1.0715064,0.35340068,4480.0,12540.5,-15485.5,
18.390,-1.712374,2.8774076,11.791618,-0.59449136,1.1017498,0.30836852,-7808.0,15099.5,-16509.5,
18.507,-3.0267908,2.0322544,12.167508,-0.7427777,0.75668092,0.29637772,-20096.0,25083.5,-21117.5,
18.624,-2.3324724,1.2182257,11.779648,-0.8116582,0.15873918,0.3001082,-29056.0,-29956.5,-25213.5,
18.740,-0.74272232,0.89979692,11.195462,-0.84043616,-0.25920724,0.29824296,31360.0,-22532.5,-27773.5,
18.857,-0.9653831,-1.6069322,10.798025,-0.7708895,-0.40762688,0.657834,-31872.0,-16388.5,-28797.5,
18.978,-0.43865876,-3.2709024,9.945689,-0.5434638,-0.32009388,0.75202848,-27776.0,-12548.5,-28797.5,
19.094,1.2875607,-1.95169716,9.438118,-0.3438834,-0.0526988068,0.7032659,-25472.0,-9732.5,-29565.5,
19.211,0.4567727,-1.190341,9.864286,-0.1498987,0.31035632,0.40616028,-28288.0,-6916.5,-30589.5,
19.326,-0.18966174,-0.7929036,10.338338,0.19183942,0.377105184,0.2605385,31104.0,-6404.5,32386.5,
19.443,-1.4538002,-1.0155644,10.237782,0.6500217,0.16206994,0.25001324,24960.0,-13572.5,31106.5,
19.561,-1.5184438,-0.6516457,9.280101,0.7797889,-0.206314432,0.20578044,23424.0,-27140.5,31874.5,
19.683,-0.16093135,0.88543176,10.00315,0.49520696,-0.4525258,0.01246193,30080.0,24827.5,-29565.5,
19.799,0.66506824,1.2493506,9.385446,0.09551323,-0.410158216,-0.12410009,-28800.0,22267.5,-25213.5,
19.916,0.81111452,0.3682842,8.853933,-0.24156182,-0.30197448,-0.13968815,-25984.0,24827.5,-23165.5,
20.032,-0.017279208,-0.22547782,8.490014,-0.10020347,-0.22376772,-0.07666977,-25472.0,27131.5,-23165.5,
20.148,0.12876708,0.397014632,7.704716,0.30228812,-0.12184583,0.10279271,-22144.0,25339.5,-21117.5,
20.272,0.9691319,1.4791937,8.118913,0.32760206,0.0168479016,0.1181143,-17024.0,19963.5,-19069.5,
20.389,0.03299904,1.2924461,9.256159,0.11882871,0.10291528,0.09986162,-17792.0,19195.5,-20605.5,
20.504,-0.7714527,1.1511881,10.606488,0.0043830724,0.050422176,0.192190868,-22144.0,14843.5,-21373.5,
20.622,-0.223180592,1.83353568,11.207434,-0.24422644,-0.02432055,0.2915814,-19328.0,10491.5,-21629.5,
20.740,-0.26148778,1.4648285,11.796407,-0.62993084,0.058815744,0.23469162,-18816.0,18171.5,-21117.5,
20.863,0.13116127,-0.4457444,11.633601,-0.63978992,0.01218481,-0.11823791,-24192.0,26107.5,-21629.5,
20.979,0.6243668,-1.709883,10.300031,-0.39571036,0.2506687,-0.63677392,-23680.0,31739.5,-23421.5,
21.095,1.0194101,-1.85353484,8.358334,0.2916296,0.529122,-0.6879347,-23168.0,-24068.5,-24957.5,
21.210,0.19101632,-0.83360504,8.226652,0.9128869,0.6624865,-0.60892856,-30080.0,-22276.5,-26493.5,
21.325,-2.3492318,-0.998805,8.777319,0.60352396,0.6114589,-0.48342476,26752.0,32763.5,-30077.5,
21.446,-4.2358628,-1.010776,9.263342,0.6566832,0.212831052,0.21190908,24960.0,24059.5,32642.5,
21.562,-2.2534638,3.011483,9.031104,0.21981798,-0.233227152,1.11122,25216.0,17147.5,31618.5,
21.678,-0.66850204,4.340265,10.805207,-0.5573198,-0.6361184,1.1519888,25472.0,7675.5,-32125.5,
21.793,1.1774274,3.1479526,11.772465,-0.8958604,-0.7713481,1.0367438,-30080.0,3579.5,-27261.5,
21.910,3.0329336,1.1894953,10.975196,-1.0087074,-0.51581052,0.99384328,-18048.0,11771.5,-21629.5,
22.034,2.087224,-1.2262542,9.713451,-0.54439632,0.22189078,1.0146273,-13952.0,24827.5,-19069.5,
22.150,0.6411262,-1.7170656,8.528321,0.348386136,0.59840224,1.0643226,-19840.0,24827.5,-20349.5,
22.267,1.1798216,0.56221456,8.619301,0.8378777,0.7464222,1.1086887,-26496.0,8955.5,-24957.5,
22.382,0.1527091,3.1958366,10.513115,0.37330036,0.6363732,1.0280837,-28288.0,-9988.5,-29310.5,
22.499,-1.1497366,3.8973376,11.17152,-0.18307326,0.45104856,0.9646656,-28544.0,-20740.5,29569.5,
22.615,-1.7434988,2.9923294,10.546634,-0.6560441,0.03283565,0.9080423,-25728.0,-23044.5,28289.5,
22.737,-1.4753482,0.456869668,8.48762,-1.1271498,-0.5086161,0.85355068,-22400.0,-16644.5,-31358.5,
22.853,0.09285402,-1.235831,6.2753776,-1.0072418,-0.8524859,0.86434248,-15232.0,-6660.5,-24190.5,
22.969,-0.35725588,-1.829593,6.5195868,-0.4488696,-0.8885916,0.9651985,-4480.0,2811.5,-18045.5,
23.083,0.8566044,-2.923743,7.486844,0.08618705,-0.6041429,0.8400944,6528.0,4348.5,-15741.5,
23.196,0.10003668,-2.6101026,9.2106696,0.6315025,0.30622612,0.16008213,14720.0,-771.5,-15998.5,
23.320,-0.20881534,-1.2047062,10.623248,0.83015024,0.97478056,-0.4768964,11136.0,-14083.5,-19326.5,
23.437,-2.365991,1.076968,11.533045,0.7479466,1.0067561,-0.28917356,-1152.0,-24836.5,-24702.5,
23.552,-2.9382052,1.82395884,10.752535,0.41886544,0.3358035,-0.25360084,-9856.0,32251.5,-31870.5,
23.670,-2.243887,1.9245152,9.536281,-0.038517384,-0.095732492,-0.32567896,-13952.0,30203.5,30337.5,
23.792,-2.552739,1.6084807,10.312002,-0.38025552,-0.27106482,-0.35552276,-14208.0,-31236.5,30849.5,
23.915,-0.07234585,1.82395884,11.118848,-0.51322024,-0.20471566,0.012328698,-13952.0,-22020.5,-29566.5,
24.034,-2.2103682,-0.002817057,9.445301,-0.40743464,-0.4455977,-0.06880913,-13440.0,-13060.5,-26238.5,
24.149,-1.1569192,-1.5542598,6.514798,-0.19573026,-1.2192717,-0.20443854,-9088.0,-6660.5,-22398.5,
24.267,1.72809392,-1.2525904,6.9146296,-0.06836118,-2.071019,-0.20843548,7040.0,-4355.5,-18046.5,
24.384,4.6083184,-2.1312624,7.606554,0.39768168,-1.840529,-0.16833286,-29568.0,-4355.5,-20094.5,
24.505,8.477348,0.24857412,9.112507,0.5803417,-0.766685,-0.2384125,-7552.0,-12035.5,-28286.5,
24.619,8.561146,0.41137984,11.027868,0.31214724,0.7213747,-0.28784126,-896.0,-23043.5,30849.5,
24.735,4.996179,2.2477326,10.029486,-0.17268126,2.1076458,-0.35778768,-11904.0,-28419.5,-31102.5,
24.852,0.09285402,0.7585391,9.13166,-0.64884968,2.4722998,-0.42347068,22912.0,-25347.5,-23166.5,
24.966,-0.795394836,-1.0658426,8.920971,-0.5900947,1.995465,-0.419606968,-7552.0,-14340.5,-24958.5,
25.084,-2.1241768,-1.1496396,9.857103,-0.239296868,1.338635,-0.36538188,-30080.0,-4868.5,31617.5,
25.207,-3.4553528,-0.9293731,10.268907,0.12242594,0.42253704,-0.30915828,21632.0,507.5,21634.5,
25.324,-3.716321,-0.77375,10.027092,0.371568368,-0.52260536,-0.241210368,18048.0,1531.5,17794.5,
25.441,-2.5623156,0.15520026,9.632049,0.50173528,-1.3299867,-0.21762842,23424.0,-772.5,22913.5,
25.559,-0.38598628,-0.11773874,9.64402,0.56035704,-1.7336774,-0.212299168,-25472.0,-4100.5,-31102.5,
25.676,2.0321574,-0.51278204,9.902594,0.7342238,-1.4745426,-0.19484588,-6784.0,-8964.5,-22910.5,
25.798,3.2196816,-0.9293731,9.744576,0.7749925,-0.603077,-0.21096686,8832.0,-18947.5,-23422.5,
25.912,4.3808692,1.0266896,9.629655,0.5006694,0.3755064,-0.2798474,11904.0,-28675.5,-28030.5,
26.026,3.296296,2.4512398,9.229823,-0.1241851,1.3562216,-0.3800373,3200.0,31228.5,-31614.5,
26.141,0.28917858,3.1048568,8.746194,-0.907451568,1.81853392,-0.47369884,-17024.0,-31492.5,30593.5,
26.259,-2.531191,2.1375992,7.448537,-1.7469416,1.304128,-0.55403732,27776.0,-16900.5,26241.5,
26.380,-3.7426572,-0.71389496,7.8148492,-1.8203521,0.13675602,-0.52859016,14208.0,10235.5,21378.5,
26.499,-1.4801366,-3.6803108,9.809219,-1.0057762,-0.8712715,-0.5003451,15488.0,-31492.5,20610.5,
26.615,-1.5854814,-5.5190576,9.260947,0.092981848,-1.4529592,-0.2897065,26496.0,-16644.5,27522.5,
26.731,0.6459147,-4.712212,9.100535,1.3497521,-1.4379041,-0.16446917,-22912.0,-15620.5,-26749.5,
26.847,0.9739203,-2.4927866,8.7174632,2.1243586,-0.675688,0.38830728,-5760.0,29691.5,-16253.5,
26.963,1.9723024,0.15759446,10.429317,2.0434872,0.57015724,0.187927468,-128.0,-1796.5,-18558.5,
27.087,-0.017279208,3.54539,9.828373,1.1275224,1.3014635,-0.0293726816,-9088.0,-32260.5,32641.5,
27.204,-1.2478988,5.6451044,9.900199,-0.07089259,1.2546992,-0.103049552,-20864.0,19451.5,19073.5,
27.321,-2.9645416,4.366601,7.731053,-1.3760259,0.342598268,-0.40761616,-30848.0,22523.5,14721.5,
27.440,-2.3085304,0.98119984,7.52993968,-2.047911,-0.8524859,-0.7153804,30848.0,-20740.5,26241.5,
27.556,0.037787436,-1.4417322,7.297702,-1.863519,-1.4200511,-0.7402946,-27008.0,10235.5,-27005.5,
27.678,5.2954544,-8.504627,9.0598344,-0.6359263,-1.0671215,-0.6715473,-8320.0,-26116.5,-18557.5,
27.794,3.91878816,-5.18387,10.544239,0.7519435,-0.4814369,-0.449317536,5760.0,-17667.5,-18557.5,
27.911,3.9570956,-3.56778332,11.384604,1.85056832,0.3034283,-0.3456636,8832.0,-27395.5,-16765.5,
28.028,2.2356646,0.70107824,10.383828,2.1520708,1.0143502,-0.22242476,3200.0,12284.5,-17533.5,
28.145,-0.1226241,2.8750134,8.784501,1.4506081,1.1649015,-0.54990716,-11392.0,-20484.5,-28286.5,
28.268,-2.504855,5.0872556,6.814073,0.20516256,0.6182537,-0.6883344,-24448.0,28667.5,22913.5,
28.382,-1.9110928,2.5685556,6.6608444,-0.865617,-0.18553036,-0.723773936,-31872.0,30971.5,20865.5,
28.499,-1.8488436,1.5055301,7.0510992,-1.4783474,-0.78227304,-0.45944312,-32640.0,-17412.5,29569.5,
28.617,0.042575836,0.32518858,8.59057,-1.4792801,-0.9256299,-0.02710775,-25728.0,4091.5,-25981.5,
28.732,1.3689635,-1.99479268,11.047022,-0.97193544,-0.5933511,0.05229807,-15488.0,25339.5,-20349.5,
28.855,0.638732,-2.9955692,12.672685,-0.18413914,-0.33008624,0.202316452,-9856.0,-23300.5,-19325.5,
28.972,1.5413461,-3.37864132,11.626419,0.3948838,-0.11105409,0.5488509,-9344.0,-22532.5,-19581.5,
29.090,0.6004248,-2.174358,9.287284,0.8971656,0.14554928,0.53246344,-10880.0,30203.5,-19325.5,
29.204,-0.232757392,-0.38349512,6.77816,1.3757322,0.10504699,0.42934248,-9344.0,10747.5,-19581.5,
29.322,1.3905114,1.78565168,8.712675,1.0129435,0.25852936,0.27546042,-5248.0,-9732.5,-20094.5,
29.440,2.312279,3.284422,11.030262,0.3307996,0.7426917,0.15941598,-7040.0,-20484.5,-26750.5,
29.560,0.69140448,3.521448,12.332708,-0.3248313,0.9464023,0.11251859,-17792.0,-23300.5,-31358.5,
29.675,-4.736251,2.1998486,11.904146,-0.7187961,0.3965569,0.69327352,-29312.0,-22020.5,28289.5,
29.791,-1.6333654,0.2246321,9.6488088,-1.0986384,0.19697654,0.424812616,-29824.0,-18436.5,29825.5,
29.909,-1.2670524,-1.5015874,8.825203,-1.1553949,0.168065368,0.42654464,-30336.0,-8964.5,-31870.5,
30.027,-0.81694264,-2.0211292,8.150038,-0.688152836,-0.15848442,0.26147112,-29824.0,3835.5,-30845.5,
30.150,-0.54879192,-2.5143346,8.308055,-0.0263933392,-0.38351196,0.17553696,-26496.0,13563.5,-27261.5,
30.268,-0.43865876,-1.99718684,8.844357,0.52678276,-0.4292103,0.15901628,-22912.0,12795.5,-24701.5,
30.385,-0.426687636,-1.166399,9.972025,0.7515439,-0.2215028,0.17606988,-19840.0,4859.5,-23165.5,
30.501,0.0018743873,0.15041184,11.272077,0.6971855,-0.1742057,-0.04029764,-16512.0,-7684.5,-26494.5,
30.618,1.5461345,2.336318,10.3096072,0.3104152,-0.12011382,-0.15234512,-15744.0,-18692.5,-28030.5,
30.741,1.1702448,2.6595354,10.668738,0.06447036,-0.35859776,0.30517096,-12160.0,-24068.5,-28286.5,
30.858,1.2684071,1.9628224,9.471637,-0.5798359,-0.26520264,-0.16939872,-3968.0,-24836.5,-26238.5,
30.975,0.82547976,-1.094573,8.521139,-0.7862111,-0.35233588,-0.6206529,-1152.0,-14596.5,-22654.5,
31.090,2.2141168,-2.8614938,8.296084,-0.06503041,0.1255646,-0.8021139,640.0,-1539.5,-17790.5,
31.204,2.7192934,-1.3603294,11.578534,0.7141059,0.7656075,-0.26732368,-4224.0,251.5,-18557.5,
31.326,2.465508,0.57897392,12.325525,0.9206143,1.0024927,-0.181922452,-16000.0,-8196.5,-26494.5,
31.444,-1.2000148,2.123234,10.869851,0.72529736,0.56496124,-0.367113868,-27776.0,-17668.5,29569.5,
31.562,-2.4904898,1.9125442,8.106942,0.25179348,-0.2911827,-0.3852333,32640.0,-23044.5,24193.5,
31.677,-2.377962,3.4687756,7.216299,-0.37266136,-1.2708321,-0.43706028,-29824.0,-20996.5,26497.5,
31.794,0.9763145,1.5558083,7.4413544,-0.84043616,-1.4572226,-0.4534477,-19328.0,-10500.5,-27006.5,
31.910,1.421636,0.05224958,6.7805544,-0.774353536,-1.5442226,-0.43359624,-3712.0,4347.5,-17277.5,
32.033,2.5876122,-0.31406328,6.8763224,-0.390914016,-1.2417877,-0.39602504,15744.0,17148.5,-14205.5,
32.152,4.8214024,-0.03394168,7.426989,0.189308032,-0.15768502,-0.34286576,28032.0,21756.5,-15997.5,
32.269,6.243558,0.0737974,10.838726,0.64322684,1.0740378,-0.34153344,25984.0,18172.5,-16253.5,
32.385,4.095959,0.626858,11.937665,0.65148724,2.0153164,-0.38163608,9344.0,9468.5,-15229.5,
32.501,-0.9773541,1.2804751,11.00632,0.41287004,2.22822,-0.42213836,-17024.0,1019.5,-22141.5,
32.622,-3.4026804,2.8774076,9.418964,-0.006142199,1.4706671,-0.423071,22912.0,-4100.5,27265.5,
32.737,-3.2686052,2.69066,8.638454,-0.5525235,0.48475604,-0.4590434,11648.0,-1284.5,16769.5,
32.851,-2.7107564,0.8375477,7.4676904,-0.818719536,-0.46518272,-0.449584,8064.0,9467.5,13698.5,
32.967,-1.8703914,-0.5798197,6.65845,-0.65284664,-1.4267125,-0.40641708,11136.0,24059.5,22402.5,
33.083,-1.3293018,-1.8128336,7.314461,-0.070226448,-1.9607034,-0.3186177,25728.0,-29700.5,-30589.5,
33.206,0.81829716,-1.580596,8.214682,0.73782104,-1.6719914,-0.23348296,-16000.0,-28164.5,-19581.5,
33.322,2.963502,-0.25420824,10.508327,1.0808915,-0.9690632,-0.205770852,4480.0,26364.5,-15485.5,
33.439,4.471849,2.4584224,11.602477,0.91821616,-0.07588104,-0.248005152,16512.0,11004.5,-16253.5,
33.556,3.98822032,4.392937,11.293625,0.30615184,0.83848492,-0.33060852,15744.0,-1027.5,-17278.5,
33.674,1.850198,4.3235052,9.457272,-0.65737648,1.5219612,-0.449584,896.0,-4355.5,-19326.5,
33.794,-0.30697764,1.5845387,7.759783,-1.5356368,1.5928402,-0.55030684,-20608.0,7675.5,-22141.5,
33.911,-1.913487,-0.711500736,7.08701236,-1.5136538,1.0146167,-0.54151356,26240.0,31995.5,-30845.5,
34.030,-2.8232836,-2.5741896,8.731829,-0.5637149,-0.023787626,-0.405218,19328.0,-15364.5,24194.5,
34.145,-2.7131504,-3.2254124,11.686274,0.45896804,-0.84142776,-0.25879688,22912.0,-7940.5,23170.5,
34.262,-1.1832554,-1.7314308,13.189833,1.075962,-1.1455947,-0.21083364,-31872.0,-12548.5,-32125.5,
34.379,2.0106096,1.2900519,13.110824,1.1248578,-0.9802547,-0.21096686,-15232.0,-26372.5,-20349.5,
34.502,3.4231884,3.2054134,10.9321,0.56395424,-0.25894076,-0.27451816,-2176.0,26107.5,-15741.5,
34.618,2.645073,3.320335,8.643243,-0.39810848,0.7012568,-0.40934816,-2176.0,24827.5,-14973.5,
34.733,1.2396767,1.3139939,7.82682036,-1.145136,1.2794802,-0.4978137,-13952.0,-27908.5,-19581.5,
34.850,-0.426687636,-0.797692,7.3288264,-1.189502,1.3406335,-0.50380916,-31616.0,-9220.5,-27773.5,
34.966,-2.437817,-3.658763,7.4676904,-0.40437036,0.86819552,-0.360985232,20096.0,5115.5,22659.5,
35.089,-2.102629,-4.331534,7.774148,0.7133065,-0.093600792,0.2682659,14208.0,3323.5,15235.5,
35.209,-2.2055798,-2.9955692,9.37108,1.0838225,-0.5980143,-0.049357364,18560.0,-9732.5,22146.5,
35.325,-1.2909946,-1.451309,11.348691,0.8561304,-1.0331476,0.19432256,28032.0,-20996.5,31362.5,
35.441,-0.16571975,1.2110431,12.754087,-0.25222028,-1.1926254,0.7445676,-25984.0,-29188.5,-25725.5,
35.558,2.6067658,1.68509508,13.536991,-0.992053336,-0.93015976,0.63052168,-14464.0,-24836.5,-21117.5,
35.683,3.4447364,-0.51517624,13.141949,-0.7986016,-0.19352422,0.025518592,-8320.0,-10244.5,-22141.5,
35.800,2.8509744,-0.83360504,10.024697,-0.14470269,0.47249872,-0.31981676,-8832.0,-1028.5,-23421.5,
35.917,1.0792651,-0.706712368,7.450931,0.495473368,1.0143502,-0.4321307,-14208.0,-2308.5,-26493.5,
36.035,-0.29261244,0.5239073,5.806114,0.9008961,1.0989519,-0.4602425,-22656.0,-9220.5,-27773.5,
36.150,-1.1593134,0.9524694,6.2227052,0.97630492,0.6343747,-0.2149638,-30848.0,-19204.5,-28285.5,
36.271,-1.2431104,1.9293036,8.3750932,0.693987936,0.08359675,-0.30183056,30592.0,-29188.5,-29309.5,
36.388,-1.2191684,2.5924976,10.046246,0.48215032,-0.32009388,-0.1957785,31104.0,31227.5,-29053.5,
36.504,-0.69004992,2.3626542,10.39101,0.47415644,-0.6129362,-0.044827504,-31616.0,25851.5,-26749.5,
36.621,-0.28542984,2.2022428,9.373475,0.55582716,-0.7303129,0.226830992,-25984.0,18683.5,-23421.5,
36.738,0.17425692,2.1998486,7.48445,0.4668287,-0.74043848,0.15075594,-16000.0,8187.5,-20605.5,
36.854,0.6052132,2.798399,6.6033836,0.32280572,-0.63025624,0.10039455,-4992.0,-516.5,-18046.5,
36.976,1.4168476,4.297169,7.9920208,-0.0414484736,-0.204182732,0.070284284,5248.0,-5379.5,-18814.5,
37.094,1.2899549,3.938039,9.600924,-0.45166744,0.1848525,0.043904504,8320.0,-771.5,-17278.5,
37.210,0.79674936,2.8414946,10.9464652,-0.8059293,0.4070822,-0.07413837,4992.0,9212.5,-16253.5,
37.327,1.0170159,1.6827009,11.753311,-1.076522,0.6227836,-0.3048949,-4480.0,22523.5,-16509.5,
37.444,-0.7906063,0.9548636,13.197015,-1.2573168,0.67927368,-0.229352768,-15488.0,-27140.5,-19325.5,
37.567,-0.7834237,0.12407564,12.541003,-1.2511882,0.5849459,0.69953532,-23680.0,-11524.5,-27773.5,
37.685,-0.81694264,-0.9269789,11.437277,-0.5192157,0.26066108,0.6490408,-30592.0,-260.5,30082.5,
37.800,-1.0874874,-1.3579352,8.889846,0.4878792,-0.07734658,0.7423026,30848.0,763.5,27779.5,
37.916,0.33227424,-0.15844018,6.682392,1.1292544,-0.196588532,0.8082521,26496.0,-9476.5,30850.5,
38.033,0.27481338,1.5366547,7.585006,1.1252575,-0.25534356,0.792530836,26240.0,-32260.5,-29565.5,
38.157,-0.20163274,3.77762736,9.031104,0.5009359,-0.45718884,0.7237835,32640.0,8699.5,-28285.5,
38.273,-0.29021824,3.7417144,8.286508,-0.12911464,-0.6802179,0.6678264,-21632.0,-260.5,-24958.5,
38.389,-0.07713425,2.9109266,7.939348,-0.72439176,-0.88099736,0.6145339,-12928.0,2043.5,-20093.5,
38.504,0.7536537,1.5917213,7.0989832,-1.1907011,-0.83476616,0.55164876,-4992.0,9979.5,-17277.5,
38.621,2.6354962,-0.3403995,7.886676,-1.2375986,-0.2416207,0.52660124,4992.0,24572.5,-15229.5,
38.743,3.3800928,-2.2030884,9.605712,-0.6223366,0.55363656,0.55431336,7552.0,-23299.5,-17021.5,
38.859,1.4671259,-3.37864132,10.616066,0.24566484,1.034468,0.61919696,-1664.0,-14340.5,-19581.5,
38.977,-1.0228438,-2.2390012,10.781265,1.0732973,0.99503168,0.6772858,-18560.0,-21252.5,-22397.5,
39.094,-1.3843684,0.59812752,11.643178,1.3798623,0.6887331,0.6942061,-31104.0,17659.5,-28029.5,
39.210,-1.37958,2.726573,11.212222,1.1059389,0.2799796,0.6498401,-31872.0,-6404.5,-32638.5,
39.324,-1.2311394,3.2700568,10.735776,0.465496416,-0.11731595,0.5809596,-30080.0,-20996.5,27265.5,
39.463,-0.9917193,2.2932224,9.205881,-0.5004301,-0.38351196,0.463049968,-26496.0,-28932.5,26241.5,
39.579,0.49747412,1.0099302,9.457272,-0.978064,-0.37738336,0.39270392,-19584.0,-28420.5,31617.5,
39.695,1.2492535,-0.31885168,10.046246,-1.016568,-0.055496656,0.36699028,-11648.0,-16388.5,-25982.5,
39.812,-0.50569636,-1.9086015,11.9256936,-0.64298752,0.38523228,0.4098907,-14208.0,-4.5,-23678.5,
39.931,-2.1529072,-2.5334882,11.846685,-0.09007789,0.5110026,0.938818736,-21888.0,4091.5,-23933.5,
40.054,-1.3891568,-2.4999696,11.2888368,-0.370396384,1.0567176,1.017292,-26240.0,-4100.5,-29054.5,
40.173,-3.0459444,-1.3459642,9.952871,-1.0674623,1.4898524,1.0442047,32128.0,-5124.5,30337.5,
40.290,-4.1400948,-1.6500278,8.047087,-1.2475909,0.94906696,0.691808036,17536.0,2811.5,19842.5,
40.408,-3.8623672,-2.1671752,5.5666944,-0.7028083,-0.17220724,0.3235569,8576.0,8955.5,12930.5,
40.524,-2.8663792,-2.7968504,5.755836,0.030096694,-1.3275887,-0.0024599694,11648.0,11259.5,17794.5,
40.647,-1.6597016,-2.43772,7.3671336,0.8140293,-1.3258566,-0.47742932,25728.0,7419.5,32386.5,
40.762,-0.60146448,-1.3100512,9.567405,1.0228027,-1.0007724,-0.53312004,-24960.0,-2052.5,-27262.5,
40.879,-0.01009661,0.059432188,11.094906,0.97697112,-0.694074,-0.29277084,-11648.0,-12548.5,-23934.5,
40.995,-0.0531922584,1.4600401,11.274471,0.7484796,-0.35166968,-0.09159167,-1664.0,-22788.5,-26238.5,
41.113,0.052152632,1.4169445,10.410164,0.29522688,-0.07854567,0.053896844,896.0,-28675.5,-28798.5,
41.236,0.7129523,2.666718,9.751759,-0.36333512,0.14581573,-0.41880756,-384.0,-32260.5,-31102.5,
41.351,-0.17769074,2.3339238,10.584941,-0.7616965,0.14328435,-0.6991261,-5760.0,-27140.5,-27518.5,
41.468,0.3203032,-0.725865968,10.8746392,-0.6293979,0.008454334,-0.701924,-9344.0,-14852.5,-24958.5,
41.584,1.160668,-1.6739698,10.640008,-0.10779764,-0.01606021,-0.5824156,-9600.0,-3844.5,-21374.5,
41.699,4.280313,-1.4680686,10.644796,0.3926189,0.248270576,-0.4558459,-9856.0,251.5,-21885.5,
41.816,1.6227488,0.5143305,10.5801528,0.72756224,0.44958292,-0.15274482,-15744.0,-1284.5,-23934.5,
41.940,-0.419505068,1.4744053,8.262566,0.6488226,0.3950914,0.019656416,-22912.0,-11268.5,-29822.5,
42.056,-2.423452,0.7800869,5.2769956,0.3106817,-0.19179222,-0.24840484,-27520.0,-21252.5,30081.5,
42.171,-4.7793464,-2.0043698,4.8005496,-0.104999768,-1.0474032,-0.054686612,-23168.0,-25604.5,31617.5,
42.289,2.3098848,1.5414431,6.895476,0.15173682,-0.96813064,-0.08426395,-10112.0,-25604.5,-27262.5,
42.405,0.5381756,1.81198784,12.093288,-0.5212141,-0.18100048,-0.11184281,896.0,-21251.5,-24958.5,
42.528,-1.4130988,-1.130486,13.582481,-0.41716056,0.198975016,0.17180648,-2688.0,-9476.5,-21886.5,
42.645,-0.66850204,-0.5678487,13.084488,-0.0764883,-0.05003418,0.20618014,-7040.0,-5636.5,-22142.5,
42.760,-1.3412728,-0.5774255,11.341509,0.23087618,-0.285587,-0.12130224,-5504.0,-9220.5,-21374.5,
42.876,1.5940184,0.5167247,10.065399,0.34465564,-0.32235884,-0.27052122,1664.0,-13827.5,-21374.5,
42.993,2.4870558,1.1487939,9.780489,0.33093286,0.17859062,-0.47156716,5760.0,-15875.5,-21886.5,
43.116,2.537334,2.5924976,10.565787,0.03382717,0.6186535,-0.5070067,-2432.0,-14852.5,-23166.5,
43.231,0.82547976,3.4424392,10.369463,-0.388782268,0.8099735,-0.55616904,-15232.0,-14340.5,-25470.5,
43.349,-1.013267,3.6004564,9.100535,-0.73078684,0.7219077,-0.5568352,-24448.0,-8196.5,-28030.5,
43.464,-0.9893251,2.7002368,6.9553316,-0.94302432,0.12529813,-0.6548934,-30848.0,4859.5,-28285.5,
43.579,-1.1976206,-0.6348863,6.6895748,-0.6631054,-0.95467424,-0.6699485,-31360.0,25339.5,-29053.5,
43.701,0.2652366,-0.855152832,8.56184,0.010911405,-1.2267325,-0.62012004,-21376.0,-24836.5,-23165.5,
43.817,2.276366,-2.6196794,9.19391,1.036259,-0.4245472,-0.49634816,-9600.0,-26372.5,-19581.5,
43.930,3.0401164,-2.2868856,12.6343776,1.72266632,0.575753,-0.44798524,-5504.0,23035.5,-17789.5,
44.048,1.6083836,2.2836456,14.923234,1.4604672,1.2517682,-0.51540024,-12160.0,-772.5,-21886.5,
44.166,-2.516826,6.162252,14.14033,0.61125136,1.2409766,-0.6249163,-27264.0,-19204.5,31873.5,
44.280,-2.2295218,6.8685416,8.789289,-1.5701438,0.394158768,-0.8299592,25728.0,-16388.5,23681.5,
44.403,-1.7482872,2.3698368,9.040681,-3.0386186,-0.59215208,-0.96199132,21632.0,17403.5,27522.5,
44.519,-0.50090796,-3.431314,9.155602,-2.7189968,-0.952142864,-0.9166928,28800.0,-2052.5,24962.5,
44.637,2.7408412,-7.49666836,7.9297716,-1.3391209,-0.61333584,-0.7365641,-22912.0,-32516.5,12419.5,
44.755,3.3441798,-6.457585,7.3671336,0.29202932,0.25333332,-0.6157234,-13440.0,-15876.5,2179.5,
44.871,3.0018092,-4.025076,6.1532736,1.5585254,1.0866947,-0.48235888,-12160.0,-18436.5,7043.5,
44.994,1.0265927,-3.931702,7.1468668,2.5525636,1.2752169,-0.37723944,-20096.0,27899.5,21123.5,
45.111,-0.47217756,-0.52475304,8.025539,2.3315332,0.70192296,-0.426002036,-28288.0,-4.5,31618.5,
45.229,-2.4617594,2.4464514,8.762954,1.4785867,-0.054697268,-0.5237938,30848.0,-23812.5,-29821.5,
45.345,-3.0459444,3.9069144,8.358334,0.450308032,-0.76108932,-0.61625636,32384.0,28411.5,-28797.5,
45.462,-1.4753482,3.3275176,8.777319,-0.55785276,-1.287486,-0.69579532,-24448.0,29435.5,-22397.5,
45.584,0.119190268,0.88064332,9.0598344,-1.0505419,-1.3880756,-0.73829616,-7552.0,-25092.5,-17533.5,
45.702,1.8932936,-1.2142832,8.360727,-0.888133,-0.9460143,-0.726705,13184.0,-8195.5,-19837.5,
45.815,3.260383,-0.433773336,7.5371224,-0.25408554,-0.1652792,-0.70245692,28544.0,2044.5,-24956.5,
45.932,4.043287,-1.5997496,8.384669,0.26231872,0.8796534,-0.6231843,31872.0,3836.5,-25980.5,
46.047,3.1382784,-0.9174021,10.505932,0.686527,1.4104466,-0.5515059,22912.0,-1027.5,-22653.5,
46.167,0.27960178,1.6084807,12.387774,0.84826976,0.8503425,-0.449717216,8320.0,-10243.5,-18301.5,
46.285,-2.7993416,4.9938816,12.16272,0.29482716,-0.048701868,-0.43612764,-640.0,-19972.5,-16509.5,
46.401,-4.3292364,4.7760096,12.174691,-0.790208,-0.7813404,-0.5102042,1152.0,-17155.5,-16253.5,
46.522,-1.1329772,2.52546,12.028645,-1.2126844,-1.5181092,-0.4846238,13440.0,-1795.5,-19581.5,
46.638,2.5421224,0.6460116,10.005544,-1.3280626,-1.3334508,-0.498879584,32640.0,15100.5,-28796.5,
46.756,4.1749684,-0.974863,6.5076156,-0.79447144,-0.12624244,-0.47116744,-17024.0,28156.5,21635.5,
46.878,4.105536,-1.4991932,6.6967572,-0.203457668,0.9921006,-0.44052428,-13952.0,-32259.5,15747.5,
46.995,2.549305,-1.3531468,8.906606,0.42299564,1.539681,-0.38923024,-20864.0,31740.5,19843.5,
47.110,0.06172943,-0.9940166,9.840344,0.874516336,1.5574007,-0.3501935,31360.0,24316.5,30851.5,
47.225,-4.2933236,-0.21829522,10.716622,1.0499818,1.2123318,-0.3396682,16512.0,12796.5,-25468.5,
47.342,-4.1640368,0.897402736,10.448471,0.8911702,0.41667484,-0.30862534,3456.0,-515.5,-19581.5,
47.465,-3.8384252,1.946063,9.263342,0.6195117,-1.0188918,-0.28824096,4736.0,-9987.5,-16765.5,
47.580,-0.72117452,1.3810315,9.344745,0.31654388,-1.68398216,-0.30636042,19328.0,-16899.5,-14717.5,
47.698,2.3314326,0.2246321,8.133278,0.0638042,-1.5402256,-0.3271445,-22400.0,-23043.5,-19325.5,
47.812,3.679368,1.0745738,7.860339,-0.07182519,-0.933357264,-0.33207404,-3456.0,-24835.5,-26749.5,
47.928,4.5604344,2.1974544,8.042298,-0.29085736,-0.29464674,-0.342998968,7552.0,-27138.5,30594.5,
48.052,4.0169508,2.2956166,8.324815,-0.7317195,0.51273452,-0.384167468,10624.0,-26370.5,28290.5,
48.169,3.1885566,0.88064332,9.871469,-0.6259339,0.6738112,-0.323414,6272.0,-18946.5,31874.5,
48.283,1.8214676,-1.1041498,11.200251,-0.210252452,0.394158768,-0.22455646,384.0,-11778.5,-29821.5,
48.404,1.1893984,-1.1831584,10.776477,0.16519317,0.07133948,-0.13022873,-3456.0,-8195.5,-27773.5,
48.521,1.5437403,0.4951769,8.652821,0.2910967,0.325145,-0.09305721,-7552.0,-11267.5,-27261.5,
48.635,0.775201536,0.98598824,7.774148,0.27084552,0.43732572,-0.0789347,-12672.0,-16899.5,-23933.5,
48.757,0.23650616,0.375466832,10.48199,0.44524528,0.47076672,-0.024709586,-18048.0,-25091.5,-20861.5,
48.875,-0.30697764,1.088939,11.882598,0.6060553,0.06747577,0.04670236,-22144.0,31996.5,-18813.5,
48.990,-0.04361546,2.8558598,11.990337,0.358778168,-0.3955028,0.068419052,-19072.0,24060.5,-19325.5,
49.107,0.7512595,4.0290184,10.3814332,-0.28699362,-0.6060082,0.045902976,-12416.0,20988.5,-20349.5,
49.224,1.3617809,3.0857032,7.7549944,-1.3301944,-0.5761643,-0.050556448,-3968.0,31484.5,-22653.5,
49.346,1.4431839,1.0937274,9.402205,-1.7733214,-0.3192945,-0.057084776,128.0,-11778.5,-28797.5,
49.463,2.501421,-2.090561,9.713451,-1.0671959,0.18498572,0.055229156,-640.0,12284.5,27267.5,
49.579,1.6514792,-4.537435,12.155538,0.231009416,0.15660748,0.239088252,-4480.0,21500.5,23171.5,
49.698,1.4168476,-2.3706824,11.537833,1.1496388,-0.012862664,0.37498416,-6016.0,15100.5,24707.5,
49.815,1.421636,0.392226216,10.517903,1.4291578,0.050155716,0.41935016,-5504.0,-1795.5,-32125.5,
49.938,1.5820475,2.7936106,7.77893636,1.0554442,0.48622156,0.38937312,-6784.0,-18947.5,-26749.5,
50.056,1.1439086,2.7960048,6.476491,-0.056103916,0.8214314,0.25840682,-13184.0,-29443.5,-20605.5,
50.172,-0.74032816,2.8774076,9.828373,-0.7891422,0.238145,0.200184752,-23936.0,-23043.5,-17277.5,
50.287,-2.1409362,1.9508514,12.277641,-1.1216874,-0.3508703,0.17926744,-30080.0,-9731.5,-18813.5,
50.405,-1.0826991,-0.82163408,12.734934,-1.0290917,-0.45319188,0.16940832,-28288.0,4092.5,-25724.5,
50.528,-0.54400352,-2.401807,10.6040944,-0.5891621,-0.09173556,0.19378964,-22400.0,16892.5,31619.5,
50.645,-0.26148778,-2.4185664,7.596977,0.27524218,0.14301789,0.28678508,-21120.0,23548.5,27523.5,
50.762,-0.16811394,-0.83839348,6.1149664,1.2362391,0.20470394,0.4016304,-24960.0,20220.5,-32124.5,
50.879,0.33466844,0.37307262,5.8946996,1.3514841,0.20350488,0.4050944,-30336.0,4604.5,-23420.5,
50.997,0.21495834,2.1256282,7.180386,0.6975852,0.37857074,0.301174,31104.0,-11779.5,-16765.5,
51.119,0.475926336,3.4927176,10.048639,-0.239163652,0.4347943,0.17726896,23680.0,-21251.5,-15485.5,
51.238,-0.53682092,2.7529092,12.517061,-0.9051866,0.036432896,0.093999448,16000.0,-18435.5,-16253.5,
51.356,-1.355638,0.31321758,13.218563,-1.0893122,-0.18113372,0.054962696,17280.0,-6147.5,-20861.5,
51.473,-1.3245134,-1.4584918,11.765283,-0.799401,-0.14369574,0.08640527,20352.0,8444.5,-24700.5,
51.589,-1.5543568,-2.9213488,9.823585,-0.14590176,-0.33261764,0.15248795,23680.0,19708.5,-29820.5,
51.706,-0.36204428,-0.9604977,7.656832,0.63056992,-0.5940173,0.232959632,27008.0,22012.5,-30076.5,
51.828,0.13594967,-0.009999663,6.8068904,0.927808736,-0.4607861,0.26759976,30848.0,14076.5,-25980.5,
51.946,0.91167108,1.5845387,7.2809424,0.6141825,-0.097730968,0.20791216,-32384.0,-3.5,-23677.5,
52.062,1.1151781,2.0801384,9.476425,0.14747342,-0.16128226,0.13197034,-30848.0,-9475.5,-22397.5,
52.180,1.4527607,2.0657732,11.305595,-0.09594004,-0.21111076,0.0837406436,-25728.0,-11779.5,-22653.5,
52.297,2.549305,2.1974544,11.992731,0.03702472,-0.32902044,0.06175749,-22144.0,-7683.5,-23933.5,
52.419,3.3920638,1.80480532,10.223416,0.27097878,-0.16328072,0.023520124,-19584.0,-6659.5,-23677.5,
52.539,3.760771,1.6036923,6.883505,0.423795,0.34086628,-0.03363608,-20096.0,-12035.5,-23677.5,
52.653,2.7097166,1.6204517,6.998427,0.29895736,1.0408632,-0.07986732,-25472.0,-21763.5,-20349.5,
52.769,1.0241985,2.0131008,10.616066,-0.1733474,1.1883501,-0.14408478,27520.0,-26627.5,-16509.5,
52.886,-1.7794118,2.6643238,13.060546,-0.486174336,0.43066412,-0.13835584,16000.0,-23299.5,-15229.5,
53.010,-2.6437184,2.3578658,13.307148,-0.8911974,-0.13836649,-0.17073104,10112.0,-10755.5,-18045.5,
53.127,-1.355638,1.72579652,11.173915,-1.2233429,-0.432274584,-0.19058248,9856.0,4092.5,-20860.5,
53.246,0.40649448,0.56221456,7.869916,-1.3481805,-0.6379836,-0.17153042,14976.0,20476.5,-31868.5,
53.362,0.17186272,-1.0682368,6.9673024,-0.7024086,-0.6401153,-0.061881104,25728.0,-30979.5,22659.5,
53.478,0.3083322,-3.4839864,8.580994,0.4561702,-0.52220568,0.07734554,-30848.0,-23555.5,17027.5,
53.597,1.2947433,-3.551024,10.1108888,1.4536724,-0.14755944,0.1727391,-26752.0,-28419.5,22147.5,
53.714,1.6658447,-1.5422888,10.788448,1.9514244,0.06814193,0.196187816,-28544.0,17404.5,-31868.5,
53.832,1.2085521,1.1966779,9.682327,1.8220568,0.27025372,0.15022303,-31104.0,-12291.5,-22653.5,
53.949,0.5525408,3.7417144,7.8340036,0.9384673,0.5345845,0.03178046,-31872.0,23548.5,-17789.5,
54.065,-0.04600966,4.378572,7.9513187,-0.34681444,0.52592444,-0.123833632,29824.0,14844.5,-15229.5,
54.189,-0.28303564,4.1032384,8.4134,-1.5041944,0.20989998,-0.2627938,21632.0,28668.5,-13949.5,
54.304,-0.18008494,2.3147702,9.237005,-2.0964072,-0.1460939,-0.3437984,15744.0,-11523.5,-16509.5,
54.419,0.58605964,0.06900899,9.897805,-1.6162418,-0.7668182,-0.29983208,18048.0,14588.5,-27516.5,
54.534,1.4360012,-2.674746,9.737393,-0.63312832,-0.8359653,-0.2000419,30848.0,31228.5,25731.5,
54.649,1.8406212,-3.0195112,10.2617232,0.4393831,-0.07987797,-0.09052581,-23680.0,-28419.5,18563.5,
54.765,2.2907312,-2.0283118,11.063781,1.1095362,0.6475646,-0.047225664,-22912.0,-32259.5,24963.5,
54.888,1.0002565,0.30364078,10.594518,1.2656832,1.1609045,-0.055219544,31872.0,18172.5,-28540.5,
55.006,-0.795394836,1.8670545,9.366292,0.9102223,1.2295185,-0.09918585,15744.0,508.5,-20860.5,
55.124,-3.6037936,2.2980108,8.485226,0.2527261,0.67167944,-0.1717969,-640.0,-14340.5,-17021.5,
55.242,-4.5997816,2.8486772,7.1971452,-0.482177368,-0.28412144,-0.26639108,-5760.0,-16644.5,-15997.5,
55.360,-1.1617076,1.4337039,7.096589,-0.9712693,-0.94215052,-0.29943236,1152.0,-8963.5,-18301.5,
55.482,1.0672941,-0.14646916,6.3663572,-0.955548,-0.8909898,-0.3083589,17536.0,6396.5,-22140.5,
55.597,2.3745282,-2.030706,8.229047,-0.390914016,0.022443614,-0.26199442,27776.0,18940.5,-27260.5,
55.714,3.3561508,-2.6651692,10.879428,0.4062085,0.7100501,-0.20497146,28288.0,23804.5,-30076.5,
55.830,0.775201536,-1.85353484,13.30236,1.0439864,0.7412262,-0.16486886,19840.0,17916.5,-26236.5,
55.948,-2.567104,0.9524694,13.316725,1.1291212,0.22042524,-0.17566058,12928.0,3324.5,-19836.5,
56.070,-4.003625,3.878184,9.299254,0.459767468,-0.63038948,-0.199375736,10880.0,-12035.5,-15485.5,
56.190,-3.680408,2.8510714,9.972025,-0.4200917,-1.3916728,-0.34366516,20608.0,-16131.5,-14973.5,
56.305,-1.1712844,1.254139,9.46206,-0.7935388,-1.864244,-0.3701782,-25216.0,-10243.5,-19837.5,
56.418,2.585218,-1.0897846,8.169191,-0.797669,-1.6076406,-0.38283516,-896.0,-2307.5,31874.5,
56.533,1.9028706,-0.82642248,8.9401248,-0.57677156,-0.9432164,-0.42680144,20352.0,2301.5,13187.5,
56.649,4.874075,-1.6117206,6.715911,-0.210119232,0.33207304,-0.396424736,30848.0,4605.5,2435.5,
56.773,5.068005,-0.4577154,6.1508792,0.41886544,1.3515584,-0.3809699,29312.0,3069.5,7299.5,
56.888,4.115113,0.193507484,7.189963,1.1661595,1.6156228,-0.31915064,16256.0,-2306.5,25218.5,
57.005,2.9012524,2.5661614,8.185951,1.546135,1.1327927,-0.323414,-6016.0,-20995.5,-24957.5,
57.120,0.38255244,5.530183,8.705493,0.65988076,0.9011037,-0.43626088,-21376.0,19708.5,-19325.5,
57.236,-1.4753482,6.0233884,10.410164,-0.6946812,0.49634712,-0.56363,-31104.0,9212.5,-17789.5,
57.357,-3.2350864,3.035425,11.487555,-1.5072585,-0.20764674,-0.61505724,29824.0,24316.5,-14461.5,
57.474,-2.7586404,-1.8894479,11.415729,-1.5348375,-0.7761444,-0.59467284,-31360.0,-16131.5,-15997.5,
57.592,-1.0826991,-2.1671752,10.0390624,-0.6958803,-1.0841751,-0.441057184,-21632.0,5628.5,-24956.5,
57.711,0.952372432,-3.527082,9.299254,0.700916,-0.777876436,-0.3267448,-8064.0,10492.5,31363.5,
57.827,1.4814911,-1.307657,9.615289,1.5440032,-0.245084684,-0.239744816,896.0,-5122.5,29570.5,
57.957,1.385723,1.9077558,9.701481,1.4017123,0.4216044,-0.27998064,4992.0,-32514.5,32130.5,
58.073,1.3569925,4.689818,9.069411,0.5305132,0.914693264,-0.38243544,2432.0,12797.5,-31101.5,
58.189,-1.1497366,5.278792,9.311226,-0.6152754,0.91069624,-0.52046304,-8576.0,6140.5,-23933.5,
58.304,-1.841661,2.9372628,9.031104,-1.5113888,0.5575003,-0.59880304,-21120.0,17916.5,-17789.5,
58.419,-2.0260146,-0.026759074,8.432553,-1.7858452,-0.06868655,-0.60693016,-29312.0,-22787.5,-15997.5,
58.535,-1.7363162,-2.3251928,8.068635,-1.307545,-0.62905716,-0.5404478,-28288.0,508.5,-20604.5,
58.656,-0.15614295,-1.6619988,8.614512,-0.033054918,-0.7172562,-0.3715105,-19328.0,13052.5,-31612.5,
58.772,1.0002565,-3.1679516,9.205881,1.334164,-0.56643844,-0.2320174,-7552.0,8188.5,32387.5,
58.888,1.9244184,-1.0323238,9.687116,2.0958472,-0.16687798,-0.171263952,2432.0,-13058.5,-31613.5,
59.005,1.3713577,1.946063,9.675144,1.92624368,0.40814804,-0.20750286,6784.0,21757.5,-29565.5,
59.122,-0.55836884,4.3258996,9.134054,1.0351931,0.7518847,-0.31595308,2176.0,-4354.5,-31358.5,
59.244,-1.5711162,4.828682,9.950478,-0.20119272,0.6590225,-0.457178168,-8064.0,-15363.5,-30078.5,
59.360,-2.2893768,3.2293554,10.422135,-1.0793198,0.25666416,-0.536584,-19840.0,-11011.5,-25214.5,
59.476,-2.5144316,0.71065508,10.254541,-1.4439738,-0.29025012,-0.5571016,-27264.0,5116.5,-18813.5,
59.593,-1.8488436,-1.3938482,9.814008,-1.2357334,-0.84076152,-0.5147341,-25216.0,24060.5,-17789.5,
59.709,-0.20642114,-1.5758076,9.545857,-0.5296077,-1.1242777,-0.43905872,-14720.0,-28163.5,-22141.5,
59.832,1.2133405,-1.094573,9.14842,0.25805536,-0.9577386,-0.35379072,2688.0,-25602.5,-29053.5,
59.947,1.8932936,0.0785858,9.026316,0.5405056,-0.40722716,-0.33367284,15744.0,-32514.5,29058.5,
60.061,1.9292068,0.8112115,9.474031,0.51039532,0.27678204,-0.35565596,21120.0,23805.5,25986.5,
60.177,1.5652881,1.1966779,10.115677,0.36890376,0.9020363,-0.3912287,17536.0,14845.5,29826.5,
60.294,0.24608296,1.0626028,10.608883,0.22261584,1.2112659,-0.41640944,6272.0,8957.5,-29565.5,
60.418,-1.472954,0.3515248,10.101312,0.16372762,1.0540531,-0.401087816,-11136.0,5116.5,-21117.5,
60.535,-2.674843,0.3634958,9.237005,0.21102472,0.5345845,-0.39988876,-27520.0,2300.5,-18301.5,
60.649,-2.468942,0.911768,8.154826,0.31827588,-0.1976544,-0.37817208,31872.0,-1795.5,-19070.5,
60.763,-1.7171626,1.82395884,7.9178,0.204896092,-0.9650664,-0.39442626,-32128.0,-8963.5,-21118.5,
60.882,-0.81694264,2.5948918,9.213063,0.2378042,-1.356633,-0.4042854,-19072.0,-14083.5,-25726.5,
60.997,0.7536537,2.5350368,10.589729,0.14321002,-1.1847646,-0.41827468,-2688.0,-20227.5,31873.5,
61.120,2.300308,2.3698368,10.948859,-0.2419615,-0.72578308,-0.4705013,11136.0,-24322.5,23937.5,
61.235,2.896464,1.74495024,10.206657,-0.46325856,0.034434428,-0.5176652,16768.0,-24066.5,21377.5,
61.352,1.5628939,0.8614898,8.494802,-0.46152656,1.0040914,-0.5321874,12672.0,-20482.5,25985.5,
61.468,0.3203032,0.449687068,6.871534,-0.5209477,1.5980363,-0.5465764,-2944.0,-14595.5,-29822.5,
61.584,-0.8791918,0.32997698,6.53874,-0.5715756,1.5771189,-0.542313,-26752.0,-6403.5,-20094.5,
61.703,-2.2007912,0.42813924,7.8723107,-0.452600068,1.1194696,-0.50780608,11904.0,2044.5,-16765.5,
61.823,-4.166431,-0.5798197,9.98639,-0.019198864,0.349792768,-0.4134783,-2944.0,7163.5,-17533.5,
61.938,-4.760193,-1.0131702,11.250529,0.50413348,-0.3891077,-0.3092915,-7296.0,4603.5,-19069.5,
62.054,-4.3196596,-0.82163408,10.800419,1.0425209,-0.9035135,-0.20603732,2176.0,-4867.5,-20094.5,
62.171,-3.4074688,0.6077044,8.576205,1.4097061,-1.2596406,-0.10131755,15488.0,-19971.5,-21630.5,
62.294,-1.6309712,2.0131008,7.4126232,1.323239,-0.8811306,-0.0095212252,-31616.0,26876.5,-32382.5,
62.410,-0.07234585,3.928462,7.6496492,0.3802284,-0.20684736,-0.06374634,-22656.0,13052.5,21633.5,
62.526,-0.07952845,4.890931,10.000755,-0.6704331,0.31994896,-0.17446152,-23168.0,11004.5,18305.5,
62.642,-1.2598698,3.83029984,11.224193,-1.3499125,0.57335484,-0.23148449,-31616.0,20988.5,27777.5,
62.763,-2.5335852,0.9404984,11.085329,-1.4984654,0.60892752,-0.20763608,22400.0,-26371.5,-25470.5,
62.879,-2.8184952,-1.5375004,9.569799,-1.1256844,0.17779124,-0.12956257,13952.0,-7171.5,-18814.5,
63.002,-1.0036902,-3.6324268,9.055046,-0.0029446482,-0.43160844,0.0393746432,13440.0,6908.5,-14717.5,
63.120,-1.0108728,-2.018735,9.687116,0.9275423,-0.6096054,0.1774022,20608.0,4348.5,-15229.5,
63.234,-0.39077468,-0.27336186,10.268907,1.3798623,-0.5812271,0.233226092,30592.0,-9987.5,-18302.5,
63.352,0.487897336,1.71861392,10.733381,1.3350966,-0.42601276,0.230295,-23680.0,-29955.5,-28542.5,
63.471,0.66746248,3.473564,10.642402,0.7897812,-0.1379668,0.14875748,-16512.0,19452.5,26497.5,
63.592,0.02821058,3.5310248,10.321579,0.042487204,0.23961054,0.0717498336,-15488.0,12028.5,17793.5,
63.710,-0.59428184,2.7169962,10.101312,-0.5598512,0.443720832,0.014327167,-19840.0,12796.5,19841.5,
63.829,-1.5854814,1.4145503,9.007162,-0.9251713,0.48475604,-0.0020602756,-27264.0,19708.5,26753.5,
63.946,-2.4162692,0.25575674,8.185951,-0.992053336,0.3059597,0.022587504,32128.0,31484.5,-29566.5,
64.063,-1.9996784,-0.3523705,8.810838,-0.717597,0.16406843,0.10479118,28032.0,-21763.5,-24958.5,
64.184,-1.769835,-1.5782018,11.03505,-0.13550974,-0.046836636,0.2008509,28032.0,-13059.5,-20094.5,
64.300,-0.9151048,-2.212665,11.734158,0.3366618,-0.16194842,0.27212962,30848.0,-12291.5,-19070.5,
64.416,-0.69004992,-0.82881668,11.784436,0.6327016,-0.3952363,0.3045048,-29568.0,-17155.5,-22654.5,
64.531,0.35142782,0.009153955,10.386222,0.7780569,-0.46558244,0.31876054,-22144.0,-25347.5,-25726.5,
64.649,1.4168476,-0.50799364,9.560223,0.72289912,-0.10798977,0.2905155,-13696.0,29948.5,30337.5,
64.772,1.5269809,0.5454551,9.67275,0.558625,0.32527822,0.24548338,-11136.0,23292.5,25985.5,
64.886,0.4304365,2.5446136,8.758165,0.12682258,0.48475604,0.17860128,-13952.0,18684.5,21889.5,
65.003,-0.66131944,2.9013498,7.4126232,-0.6627057,0.38350028,0.08507296,-20608.0,19452.5,22657.5,
65.119,-2.0164378,2.276463,7.297702,-1.1196889,0.5706902,0.09146805,-26496.0,27388.5,30081.5,
65.234,-3.680408,0.3587074,7.884281,-1.0180335,0.387097536,0.16181414,-32640.0,-24579.5,-24702.5,
65.350,-4.4345812,-1.4225786,8.224258,-0.38265364,-0.30836958,0.29531184,31104.0,-12803.5,-19838.5,
65.473,-4.0012308,-1.4896164,9.519521,0.29256224,-1.128408,0.41748488,-25216.0,-5123.5,-19070.5,
65.589,-1.2646582,-0.37870672,10.9464652,0.61125136,-1.3233252,0.4634497,-9600.0,-6403.5,-25214.5,
65.706,3.3561508,0.42574504,11.202645,0.6339007,-1.0500679,0.44759516,6016.0,-13314.5,29313.5,
65.823,5.776689,1.3092055,8.925759,0.22021768,-0.1891276,0.3687223,18816.0,-21250.5,17537.5,
65.938,3.784713,2.0825326,6.6488732,-0.4022386,1.0456596,0.25947264,22144.0,-21506.5,16513.5,
66.059,1.5389519,1.98437036,4.7526656,-0.61674092,2.2095676,0.20444814,9344.0,-13570.5,29825.5,
66.178,-0.60385864,1.6635473,5.2506596,-0.637525,2.3818356,0.19285702,-19584.0,-1539.5,-18558.5,
66.294,-2.102629,1.78086332,5.978497,-0.171881868,1.88568236,0.23775594,15488.0,8700.5,-13949.5,
66.415,-4.654848,2.1663298,7.5275452,0.7391534,0.7263043,0.31409744,-10624.0,8443.5,-18045.5,
66.530,-6.0746096,4.0553548,8.952095,1.0290645,-0.7943971,0.35113576,-15488.0,-7172.5,-25726.5,
66.652,-4.5638684,6.0976084,9.895411,0.45270616,-2.0620926,0.32129196,-128.0,-24324.5,-26238.5,
66.769,-1.3484554,6.349,10.206657,-0.21784662,-2.5062852,0.25094588,-32640.0,-30211.5,-27006.5,
66.885,2.441566,4.8358644,10.632825,-0.9611437,-1.8475902,0.12397648,-1152.0,-23299.5,-32638.5,
67.001,5.245176,1.6060865,12.454812,-1.2671759,-0.4621184,0.0291158368,17280.0,-5890.5,26753.5,
67.119,4.0624404,-1.5159526,13.718951,-0.8782739,0.63850484,-0.012985237,17536.0,13565.5,27522.5,
67.242,0.79674936,-2.303645,12.512273,-0.19599672,1.1216012,0.0026028176,3712.0,23805.5,-30077.5,
67.359,-1.8608146,-1.2645614,10.352703,0.46149944,0.8404834,0.047368516,-10880.0,22780.5,-24189.5,
67.476,-2.492884,0.14322924,7.6592264,0.835746036,0.025774396,0.08200864,-19328.0,13052.5,-19069.5,
67.593,-1.484925,0.89022016,5.540358,0.7747261,-0.8861934,0.08040986,-14208.0,-259.5,-21118.5,
67.707,-0.27585304,1.3834257,6.77337136,0.28403544,-1.2098122,0.020855498,640.0,-8706.5,-27774.5,
67.826,1.6179604,1.76649808,10.560999,0.13681492,-0.56217504,-0.0153834,15232.0,-9986.5,27777.5,
67.949,3.3082668,1.6467879,13.944006,0.054211556,0.2881067,-0.04562689,18304.0,-11010.5,23937.5,
68.065,2.882099,1.3427243,14.023014,-0.2849952,0.7386948,-0.12036961,13440.0,-10498.5,25217.5,
68.181,1.3330505,0.68192468,11.66712,-0.5709094,1.0873608,-0.178191984,1408.0,-6402.5,-32126.5,
68.298,-0.58949348,0.32518858,8.513956,-0.5890289,1.2121986,-0.19378004,-14976.0,508.5,-23677.5,
68.415,-1.700403,-0.491234168,7.371922,-0.3669324,0.7035217,-0.15421036,-31360.0,6908.5,-17277.5,
68.536,-2.5024608,-1.1209092,8.324815,0.179848616,-0.09693158,-0.06334665,25728.0,9980.5,-16253.5,
68.652,-2.756246,-1.4465206,10.089341,0.7394198,-0.7260495,0.019922878,28800.0,4860.5,-16765.5,
68.767,-1.9063044,-0.40743716,11.200251,1.0455852,-1.0776467,0.07294891,-24448.0,-8195.5,-23422.5,
68.884,0.03299904,1.3092055,11.075752,0.982033968,-1.1385335,0.0677529,-7808.0,-24835.5,-31614.5,
69.001,2.0225806,2.2357616,9.794854,0.42739224,-0.8146483,-0.00792245,7296.0,28157.5,20353.5,
69.121,2.7695716,2.9061382,9.301649,-0.25328612,-0.075214888,-0.118371144,17536.0,23805.5,12673.5,
69.239,1.397694,2.2190022,8.48762,-0.67616208,0.6796733,-0.19471266,15744.0,28413.5,14977.5,
69.360,-0.35007328,1.1511881,8.068635,-0.9018559,0.902435936,-0.223224144,6016.0,-27906.5,27265.5,
69.478,-2.1098116,0.22942052,8.365516,-0.87294468,0.46263964,-0.209767792,-7552.0,-13827.5,-28542.5,
69.595,-1.8991218,-1.3339932,10.910552,-0.44993544,0.11423994,-0.140754,-16256.0,-771.5,-21118.5,
69.717,-1.4992902,-2.341952,11.899358,0.205562252,0.0055232496,-0.047492124,-19584.0,2812.5,-19837.5,
69.835,-0.35486168,-1.556654,10.592123,0.6337674,-0.25174624,-0.003259357,-20096.0,-3843.5,-22910.5,
69.950,0.6530973,0.43532188,8.499591,0.7679313,-0.29731136,0.012328698,-14976.0,-14083.5,-25726.5,
70.066,0.530993,1.74016184,5.885123,0.39008752,0.04042983,-0.04469427,-9856.0,-26371.5,-32126.5,
70.181,0.22453514,2.2860398,4.7550596,-0.19839488,0.5168648,-0.12529917,-9600.0,-30211.5,32129.5,
70.298,-0.8839802,3.3155464,5.791749,-0.37878996,0.6839367,-0.15634206,-15488.0,-26627.5,-29054.5,
70.419,-2.1002348,4.153517,7.596977,-0.028791502,0.90869784,-0.116639144,-27264.0,-20483.5,-24702.5,
70.536,-3.6851964,4.7233368,9.237005,0.235272816,0.7538831,-0.08546303,24704.0,-18691.5,-23934.5,
70.652,-4.906239,5.223725,9.612895,0.007847086,0.10411437,-0.078401776,13952.0,-24067.5,-25214.5,
70.767,-4.3148712,4.2133716,9.26813,-0.4873734,-0.720587,-0.094922448,14976.0,-26115.5,-24702.5,
70.881,-2.1241768,2.003524,9.189121,-0.727989,-1.3167969,-0.10091785,26240.0,-17923.5,-20350.5,
71.002,0.2963612,0.377861032,9.634443,-0.6705664,-1.2734966,-0.097054148,-23936.0,-1539.5,-20094.5,
71.118,2.750418,-0.4601096,10.558604,-0.1797425,-0.5323313,-0.06494542,-11904.0,4092.5,-23933.5,
71.232,2.8533686,-0.53672404,11.363056,0.486014,0.3733747,-0.0196468,-3968.0,2300.5,-25213.5,
71.346,1.3545983,0.43053344,11.300807,0.85053468,0.9917009,-0.0095212252,-7296.0,-2563.5,-23678.5,
71.464,-0.70441512,0.382649416,9.816402,0.76140296,1.1209352,-0.03603424,-24192.0,-14595.5,-23934.5,
71.587,-2.7035736,2.537431,7.771754,0.15306914,0.58587856,-0.09132521,28288.0,-27139.5,-26494.5,
71.702,-3.3308544,2.5901034,9.028709,-0.25235356,-0.2978443,-0.11650591,25728.0,-30211.5,-27006.5,
71.819,-3.2733936,1.9532456,11.513891,-0.1315128,-0.931492032,-0.08493011,29824.0,-22275.5,-23678.5,
71.936,-1.6620958,1.1727359,12.493119,0.249128852,-1.1438627,-0.02191173,-27776.0,-22275.5,-26750.5,
72.055,-0.08192265,1.4073677,11.813167,0.514259,-1.0244875,-0.009654457,-11904.0,-29955.5,32385.5,
72.177,0.37536984,3.1790772,9.976813,0.5599573,-0.4622516,-0.016182788,4480.0,29949.5,23937.5,
72.292,0.0258163816,2.939657,6.9577256,0.23060972,0.20497042,-0.05535277,6016.0,27133.5,18305.5,
72.409,-0.036432864,2.1160514,8.604936,-0.245691968,0.64663196,-0.116772376,640.0,21501.5,17025.5,
72.528,-0.38598628,2.2956166,10.276089,-0.360936936,0.9713165,-0.12929611,-5248.0,22524.5,24193.5,
72.647,-1.3125424,1.898179,11.33672,-0.431949236,1.1217345,-0.13076166,-17280.0,30460.5,-32638.5,
72.770,-2.5024608,1.5414431,10.6017,-0.43128306,0.7452231,-0.12090254,29056.0,-27395.5,-28030.5,
72.887,-2.7251216,1.1775243,8.427765,-0.45166744,-0.0889377,-0.11650591,19840.0,-25603.5,-24702.5,
73.003,-2.1840318,0.5286957,6.421424,-0.469786936,-0.97745672,-0.1169056,25472.0,-18179.5,-20094.5,
73.119,-0.9701715,0.66516524,5.2171408,-0.31377316,-1.7537954,-0.09825323,-26496.0,-7683.5,-19582.5,
73.235,1.5102215,-0.32364008,9.287284,0.12615642,-1.3505044,-0.06960852,-7552.0,-2563.5,-25470.5,
73.351,4.5963472,1.6204517,10.496355,0.8386771,-0.33008624,-0.05068968,6016.0,-9218.5,30849.5,
73.474,4.048075,3.38019,11.030262,1.0105454,0.9200225,-0.09452275,9600.0,-25858.5,24193.5,
73.588,1.9244184,4.6515108,9.847527,0.5307797,1.620419,-0.17899136,1152.0,27133.5,24193.5,
73.703,-0.68765576,4.009865,5.8109024,-0.35893852,1.9765462,-0.3288765,-18560.0,23292.5,28545.5,
73.819,-3.608582,1.1918895,7.86512736,-0.43514676,0.66395208,-0.2866422,23424.0,31228.5,-30078.5,
73.936,-5.725056,1.0290838,10.434106,-0.16921724,-0.7007355,-0.212832116,12928.0,-29699.5,-29566.5,
74.059,-3.79293532,0.6340406,13.311936,-0.06010084,-1.6092393,-0.1642027,21376.0,-30723.5,-27006.5,
74.176,0.6052132,0.26772772,14.521009,-0.0807517,-1.70170192,-0.15834053,-22400.0,-32259.5,-31102.5,
74.294,5.7168336,-2.5358824,13.891334,-0.15309628,-1.0005058,-0.246806068,-2176.0,-31747.5,29569.5,
74.413,3.6506376,-1.89902468,10.149197,0.36130956,0.8507422,-0.16220424,6016.0,-30722.5,25729.5,
74.531,0.6100016,0.674742036,6.313685,0.48001856,1.7106166,-0.14768202,-7296.0,29692.5,29569.5,
74.654,-0.9773541,1.838324,3.97454968,0.53517632,1.71861052,-0.11304189,-30848.0,23036.5,29313.5,
74.774,-1.3005714,1.0171128,0.713647236,1.1004765,1.5218279,-0.061481404,14208.0,16380.5,23937.5,
74.894,-4.999613,3.1958366,2.075948,1.6584488,1.2792138,0.043904504,-3456.0,-1540.5,4992.5,
75.010,-9.663518,7.584408,1.6976642,1.0335944,0.53884784,-0.004191975,-8320.0,-16644.5,-20095.5,
75.125,-7.240586,7.5556776,3.69682268,0.008246779,-0.37511836,0.01912349,-7040.0,-23044.5,31104.5,
75.242,-8.061797,9.257956,5.806114,-1.3240657,-1.3826132,-0.048424748,-1664.0,-20740.5,-26239.5,
75.362,-4.4345812,7.174999,7.237847,-2.0837502,-1.6047096,-0.048424748,6784.0,-5123.5,3456.5,
75.478,-0.68047316,3.1718946,6.170033,-2.750972,-1.5800618,-0.11064374,19584.0,21500.5,31873.5,
75.594,0.9691319,0.06182639,5.281784,-2.87581,-0.7713481,-0.10797911,-32128.0,-3331.5,-13694.5,
75.708,1.3474157,-2.9428966,5.6552796,-1.9046874,0.36191684,0.0064665236,-27008.0,-27395.5,-10877.5,
75.826,-0.57752248,-5.4448376,8.209893,-0.553989,0.6913977,0.1403639,31104.0,-771.5,-13693.5,
75.946,-2.437817,-5.7967852,10.807602,0.8747828,0.12289997,0.34314188,21376.0,4092.5,-17532.5,
76.062,-4.298112,-3.1583748,11.51868,1.83005068,-0.7317784,0.50208676,20096.0,-10755.5,-12925.5,
76.179,-3.0339734,0.04985538,11.418123,2.0177736,-1.5177096,0.5515155,30336.0,25852.5,-13693.5,
76.295,-0.07952845,2.2549152,10.793237,1.5296143,-1.688512,0.481036232,-11904.0,-6403.5,-24702.5,
76.413,-0.62061804,2.111263,13.917669,0.7094428,-0.91337268,0.33528122,10880.0,-24578.5,25217.5,
76.535,5.482202,2.8965612,12.29919,-0.0658298,0.7574804,0.2059137,18816.0,-30466.5,17025.5,
76.648,3.109548,1.71143132,11.585717,-0.7298542,1.5844466,0.077612008,10880.0,-26370.5,25217.5,
76.766,-0.7570875,0.04746118,9.950478,-1.1276828,1.78456,0.0016701994,-8064.0,-15363.5,-25982.5,
76.881,-3.361979,-1.7290366,8.05427,-1.0449462,1.2281864,0.031114302,-30080.0,3580.5,-14973.5,
76.997,-3.385921,-2.1216856,5.4062824,-0.48151124,-0.13183818,0.14409438,20352.0,19196.5,-11645.5,
77.120,-3.61097632,-2.8231866,8.384669,0.264184,-1.3712884,0.27319548,24960.0,25340.5,-11645.5,
77.236,-1.925458,-1.7649496,9.684721,0.8579956,-1.9467142,0.37058752,-22400.0,19196.5,-16253.5,
77.351,1.4575491,-0.421802336,10.587335,1.1155316,-1.7709822,0.399099,3712.0,5373.5,-29821.5,
77.469,4.421571,2.6475642,6.9026584,0.9190156,-0.5998795,0.3483379,27264.0,-8962.5,17537.5,
77.583,4.19891,2.6571412,9.976813,0.37250096,0.69499484,0.20871154,-30848.0,-16130.5,9857.5,
77.699,2.6235252,2.2716746,10.153985,-0.208387216,1.686102,0.09359976,27520.0,-16898.5,17537.5,
77.822,0.03299904,0.7441739,10.3814332,-0.469786936,2.1132414,0.042172496,6016.0,-12546.5,-30846.5,
77.940,-2.8783502,-0.52954144,9.521915,-0.4769814,1.8979398,0.048434364,-20608.0,-4611.5,-19326.5,
78.056,-4.286141,1.1990721,7.652044,-0.33588952,0.9177575,0.0837406436,21120.0,4604.5,-14461.5,
78.172,-4.336419,-0.81205732,7.386287,-0.096073288,-0.29517966,0.16501169,9088.0,9212.5,-13949.5,
78.289,-3.7330804,0.04746118,7.25700036,0.06979961,-1.4159208,0.224699292,12160.0,9468.5,-13181.5,
78.413,-2.7634288,1.0003534,7.747812,0.2058287,-2.057296,0.2793241,-28544.0,7420.5,-15997.5,
78.528,-0.73075132,0.9093738,8.748589,0.5622223,-1.8539852,0.34607296,-640.0,2300.5,-27261.5,
78.643,0.61479,2.2333674,9.445301,0.8029711,-1.0216896,0.38364416,22912.0,-5378.5,23169.5,
78.758,7.059981,2.24055,8.205105,0.41513496,0.063478832,0.27612656,-29568.0,-11778.5,12161.5,
78.873,4.48382,3.6363696,7.9178,-0.44993544,1.2849428,0.14529348,-30848.0,-11266.5,13441.5,
78.988,2.8509744,1.9676108,8.569023,-1.2340014,2.5010776,-0.0060572124,18304.0,-2050.5,30337.5,
79.126,-1.4992902,-0.36434152,8.851539,-1.2012265,2.7226412,-0.011919388,-23168.0,19964.5,-14461.5,
79.244,-6.0817924,-2.1815404,5.4206476,-0.4723183,1.9761464,0.045503276,5504.0,-27139.5,-12157.5,
79.360,-7.690696,-0.4601096,7.711899,0.22408138,0.08146505,0.21683864,-17792.0,-22020.5,-19581.5,
79.474,-6.95807,0.9381042,7.2546068,0.6586817,-1.7243512,0.30850176,-16000.0,-28676.5,-18045.5,
79.589,-4.456129,1.82635316,8.150038,0.43498648,-3.0991642,0.3223578,9600.0,24572.5,-12413.5,
79.711,0.13116127,2.3458948,9.167574,0.216620432,-3.2956806,0.30277282,-12416.0,18172.5,-19581.5,
79.829,5.0249096,4.09845,9.58177,-0.07862,-2.291117,0.28851706,30848.0,16381.5,19842.5,
79.942,7.634589,1.5773561,9.46206,-0.226373452,-0.45519036,0.12331032,-13440.0,19197.5,-3453.5,
80.059,6.3273552,1.1823127,8.746194,-0.120454592,1.472932,0.049633448,-12672.0,23805.5,-5245.5,
80.176,2.3074906,1.2134373,9.895411,-0.008673593,2.8572044,0.029249064,-30080.0,28925.5,16514.5,
80.299,-0.215998,0.851913,8.456495,0.22221614,3.0658448,-0.005923982,-4736.0,29692.5,-21885.5,
80.412,-3.7953296,0.49038848,8.415794,0.41700024,2.221825,0.013794242,16768.0,21244.5,-13949.5,
80.534,-8.294035,2.441663,7.7669656,0.43005688,0.5889429,0.058160244,-4480.0,12027.5,-17277.5,
80.649,-7.554226,2.2429442,8.4229768,0.17891599,-1.2501812,0.09946193,-4224.0,7675.5,-16509.5,
80.766,-4.8368072,1.732979,9.323196,-0.14523562,-2.7119944,0.098396088,13696.0,8700.5,-13181.5,
80.882,0.36100464,0.97401732,9.787672,-0.198794584,-3.208414,0.0967973,-17792.0,8444.5,-19837.5,
81.003,4.060046,1.0506318,8.504379,-0.082483692,-2.393172,0.07015105,26752.0,9981.5,22402.5,
81.117,5.3170024,0.55982036,8.688733,0.09431416,-0.9417509,0.0068662176,-14976.0,12541.5,-1917.5,
81.232,5.9754076,1.4193387,8.209893,0.01757297,0.5952047,-0.06987498,-8320.0,15101.5,-10109.5,
81.347,4.641837,1.68509508,8.497197,-0.23037038,1.93031484,-0.1748612,-20096.0,13821.5,-125.5,
81.467,1.4120592,1.71621968,9.428541,-0.2531529,2.6517622,-0.230285392,23936.0,12029.5,23938.5,
81.591,-1.508867,0.906979568,9.232217,-0.006541893,2.4000884,-0.23508172,-9600.0,12028.5,-20861.5,
81.708,-3.9389816,0.89979692,8.454102,0.27351016,1.2978662,-0.209767792,25216.0,12796.5,-13181.5,
81.826,-3.5654864,1.69946032,8.499591,0.5066648,-0.212443068,-0.1893834,9600.0,11260.5,-12925.5,
81.943,-3.2829704,2.9324744,7.7669656,0.3674382,-1.3495717,-0.19324712,11904.0,2812.5,-15741.5,
82.061,-1.3364844,3.452016,7.2426352,-0.35893852,-1.98575084,-0.28464374,32640.0,-4611.5,-19326.5,
82.184,0.5956364,2.4871528,8.624089,-0.96594008,-2.1704094,-0.38576624,-2176.0,4092.5,-23677.5,
82.300,2.4080472,0.59094492,9.840344,-0.847231,-1.6011124,-0.398289968,21888.0,18941.5,28546.5,
82.416,4.402417,-0.9772572,11.087723,-0.39930756,-0.4433328,-0.4005549,-31872.0,25853.5,14466.5,
82.531,5.1470136,-1.1209092,11.449247,0.14147802,0.8773885,-0.39722412,-29568.0,21501.5,11906.5,
82.648,3.48543768,-0.24463144,11.020685,0.499870036,2.109511,-0.3988229,27264.0,14333.5,24194.5,
82.766,0.056941032,-0.029153272,10.917735,0.69385468,2.6284468,-0.40455184,384.0,7933.5,-24701.5,
82.888,-3.79772384,-0.15125756,10.005544,0.8951672,2.1161726,-0.37390864,26240.0,-4099.5,-18302.5,
83.006,-1.1712844,-2.116897,7.18278036,0.9067583,0.868595264,-0.47076776,128.0,-21763.5,-25982.5,
83.124,-5.528732,2.1495702,6.8404092,0.6791993,-0.7388397,-0.31475398,-3712.0,30203.5,31617.5,
83.241,-3.6947732,2.9612048,6.241859,0.31188076,-2.0858076,-0.3302088,6784.0,25596.5,31361.5,
83.356,-1.8440552,3.0904916,6.7135168,-0.029191196,-2.7782102,-0.3616514,28288.0,26364.5,31873.5,
83.478,1.1103897,3.3514596,7.910618,-0.36200284,-2.395304,-0.4141445,-9088.0,27132.5,26241.5,
83.593,3.9810376,3.0880974,9.950478,-0.6039508,-1.114685,-0.45224864,11904.0,27645.5,15233.5,
83.709,5.0991296,2.441663,11.305595,-0.4980319,0.6331756,-0.4906192,20096.0,29181.5,13441.5,
83.824,2.1590502,1.0602086,11.413335,-0.49709928,1.8124054,-0.5023436,9856.0,-32514.5,24705.5,
83.941,-1.9661596,-0.4672922,10.230599,-0.5102892,2.0182476,-0.5047417,-17792.0,-24067.5,-26494.5,
84.062,-3.5032368,-1.4800396,9.421359,-0.180142216,1.3349046,-0.43293008,20352.0,-15875.5,-21118.5,
84.180,-3.6468892,-0.71868332,8.616907,0.30268782,0.5889429,-0.35125936,-896.0,-13828.5,-23422.5,
84.296,-3.029185,0.698684036,7.884281,0.478286632,-0.26760076,-0.2901062,-7552.0,-19204.5,-27262.5,
84.413,-1.769835,0.7633275,7.812455,0.54756684,-0.85528376,-0.25573256,-3968.0,-27652.5,-29310.5,
84.528,-0.62780064,0.8710666,8.609724,0.459234536,-1.0514002,-0.24853806,7296.0,30204.5,-30078.5,
84.651,0.011451185,1.87423716,8.207499,0.2787062,-0.839029568,-0.2717203,21376.0,26364.5,-30078.5,
84.769,0.22932354,2.6930542,7.630496,-0.1417716,-0.43160844,-0.31115676,28800.0,25852.5,-31358.5,
84.885,-0.47217756,2.7696686,6.399876,-0.6155419,0.113840248,-0.3296759,27008.0,30204.5,-29822.5,
85.002,-1.4059162,1.1607649,6.232282,-1.1867043,0.2522675,-0.357388,21888.0,-26371.5,-25214.5,
85.117,-1.8344784,-0.83599928,9.715846,-0.72079452,0.18498572,-0.24254266,18816.0,-12035.5,-19070.5,
85.234,-2.6604778,-4.286044,14.023014,0.40847344,0.180988784,-0.06281372,16512.0,-4355.5,-16254.5,
85.357,-2.4665478,-3.0027518,16.223286,1.1325852,0.11757072,0.03950787,14464.0,-12291.5,-19326.5,
85.474,-1.2239568,0.31082338,14.820284,1.1777506,-0.13623479,0.050299604,13184.0,-27395.5,-27774.5,
85.591,0.7225291,3.3514596,11.310384,0.6184459,-0.17274014,-0.0104538432,15488.0,23548.5,30849.5,
85.709,0.88772904,3.6148216,6.8667452,-0.6359263,0.65622468,-0.13622414,14720.0,18428.5,27009.5,
85.825,-1.142554,1.3786373,4.7143584,-1.4315833,1.1106763,-0.18578616,4480.0,28668.5,31873.5,
85.948,-1.9757364,-0.201535792,4.2163644,-1.094375,0.97811128,-0.075337452,-11136.0,-18692.5,-27262.5,
86.066,-3.7570224,-1.5758076,5.195593,-0.24036272,0.29463506,0.10199332,-19840.0,-6660.5,-27518.5,
86.183,-7.0801748,-2.9213488,7.9944148,0.7789895,-0.6437126,0.32995196,-19328.0,-7428.5,-28030.5,
86.299,-7.341142,-1.6021438,11.499526,1.4214305,-0.75016432,0.5544466,-9088.0,-21508.5,-29054.5,
86.415,-4.322054,2.4440572,12.82352,1.2624856,-0.77574472,0.59574824,2944.0,24828.5,28801.5,
86.536,-1.0324206,5.3937136,12.148355,0.37902932,-1.0274186,0.51980644,15232.0,9724.5,19329.5,
86.654,2.4966326,2.8798018,10.723804,-0.910649,-0.78213984,0.30730264,30848.0,7420.5,18049.5,
86.771,3.58599432,1.87663132,9.016739,-1.94212532,-0.15049054,0.19672072,-25472.0,22012.5,28545.5,
86.891,1.6395082,-0.8934601,7.225876,-2.151032,0.7049873,0.14822456,-27776.0,-13571.5,-21886.5,
87.006,-0.38359208,-2.2892796,5.830056,-1.4658236,1.0873608,0.247481808,27008.0,14588.5,-13949.5,
87.130,-1.2526872,-2.8974068,5.815691,-0.17388032,0.992367,0.4392016,10624.0,32508.5,-13693.5,
87.244,-3.5487266,-4.5565888,6.421424,1.0815576,0.43812508,0.5984129,896.0,30716.5,-14205.5,
87.362,-4.4752828,-3.811992,10.347915,2.1547354,-0.054564044,0.83449864,-1664.0,11515.5,-16253.5,
87.480,-5.188755,-0.1871706,9.483608,2.3391272,-0.124377208,0.9581373,1408.0,-21763.5,-27518.5,
87.595,-4.300506,3.868607,8.580994,1.4648639,-0.041640616,0.9839841,9600.0,9468.5,20609.5,
87.710,-2.2414928,4.948392,5.889911,0.092981848,-0.25800818,0.8522184,23424.0,-10499.5,6528.5,
87.831,-2.9166574,4.9459976,8.312843,-1.5369692,-0.212443068,0.67621992,-27520.0,-7171.5,7808.5,
87.949,0.07130623,3.497506,9.758942,-2.3503458,0.575753,0.59441596,-24448.0,17916.5,26497.5,
88.063,-0.9605947,0.377861032,10.5801528,-2.3403538,0.989436,0.61067016,31104.0,-14339.5,-20862.5,
88.180,-3.7378688,-3.1272502,10.75493,-1.6631391,0.7577468,0.70579732,16512.0,17404.5,-12925.5,
88.297,-5.6316824,-4.0562004,9.3303792,-0.4176935,-0.17500508,0.8964512,10112.0,-27907.5,-13181.5,
88.419,-6.2374152,-3.574966,9.457272,0.935403,-1.6500082,1.1313379,15232.0,-24835.5,-12157.5,
88.534,-2.9166574,-3.05303,11.540227,1.82658668,-2.2478166,1.2632369,-29568.0,25084.5,-14205.5,
88.652,0.7512595,1.75692132,10.505932,1.9049266,-1.7442026,1.2291296,1152.0,-1538.5,-29566.5,
88.769,4.9770256,-0.21111262,5.988074,1.2451656,-0.57523176,1.0820423,27264.0,-16898.5,14209.5,
88.886,3.6410608,4.780798,5.746259,0.4301901,0.8839168,0.9875814,-26240.0,-19714.5,3201.5,
89.005,1.9459662,3.7465028,4.130173,-0.5434638,1.8678296,0.84062728,-31872.0,-11778.5,12673.5,
89.122,-0.60864704,2.7409382,7.10377136,-1.4251882,1.8201327,0.7201863,13440.0,5629.5,-31869.5,
89.241,-1.3412728,2.2190022,9.248977,-0.6283321,1.6766426,0.8095844,-14464.0,29436.5,-16765.5,
89.357,-3.62534136,1.4648285,10.704651,-0.19453116,1.0258081,0.8559489,27264.0,-27395.5,-12413.5,
89.475,-4.120941,1.7521329,10.6998624,-0.16681908,0.20510364,0.836896836,14208.0,-28419.5,-13181.5,
89.595,-3.3691616,2.1902718,9.126872,-0.4832433,-0.5194078,0.773745236,13440.0,-27907.5,-13437.5,
89.718,-0.9127106,1.5246837,7.67359168,-0.75010548,-1.1437294,0.695138736,23680.0,-19715.5,-12925.5,
89.837,0.7345001,0.13125824,7.012792,-0.43394768,-1.1978214,0.66742664,-27520.0,-6147.5,-16253.5,
89.953,1.2899549,0.3563132,7.27376,0.397415232,-0.7681505,0.6916747,-17024.0,1020.5,-21372.5,
90.068,2.6714092,1.1511881,9.375869,0.6734704,0.07147271,0.6487743,-13440.0,-1283.5,-22397.5,
90.183,2.7528122,3.0019062,12.153143,0.678666336,0.50927052,0.5724328,-19584.0,-10243.5,-19581.5,
90.307,0.6315494,3.5310248,15.021397,0.731692436,0.343264436,0.524736,-28288.0,-22019.5,-18557.5,
90.424,-0.8959512,2.7672744,13.575299,0.19197266,0.41614192,0.430541568,-32640.0,31996.5,-15485.5,
90.542,-0.59188768,2.7098136,9.725423,-0.448336668,0.418007132,0.28691828,28288.0,31484.5,-14461.5,
90.661,0.5716944,2.633199,6.3807224,-0.9400932,0.2625263,0.14782487,22400.0,-25347.5,-12413.5,
90.776,0.7129523,1.5342605,3.5771124,-1.3159386,0.0606809768,0.019389954,19840.0,-7171.5,-14205.5,
90.900,-0.68286732,-0.82642248,9.146026,-0.67829376,0.11730425,0.0265844384,15744.0,14076.5,-20604.5,
91.017,-0.31176604,-1.355541,10.6519784,0.3823601,-0.811983636,0.14409438,14720.0,19964.5,-26236.5,
91.136,2.2811544,-0.041124284,11.767676,0.921547,-0.6735564,0.1791342,23424.0,9212.5,-25724.5,
91.250,3.38727536,2.0298602,11.509103,0.9511243,-0.034979052,0.13863191,-32640.0,-4099.5,-21885.5,
91.368,3.437554,2.7074194,8.72704,0.60272456,0.811971936,0.02631798,-31872.0,-16643.5,-16509.5,
91.489,0.4376191,1.6036923,8.777319,0.1277552,1.2115324,-0.1109102,21120.0,-20739.5,-13949.5,
91.605,-1.0635455,1.70664284,8.786896,-0.21491556,0.8856488,-0.178591668,3968.0,-22019.5,-14973.5,
91.723,-2.51922,2.465605,10.204263,-0.7197287,0.231749884,-0.24534052,-8832.0,-17156.5,-16253.5,
91.839,-2.9094748,2.2860398,12.004703,-1.0474777,-0.61959776,-0.28717512,-9856.0,-7428.5,-19837.5,
91.963,-2.8352546,0.9165564,13.10843,-1.0402832,-1.325457,-0.26932212,2688.0,8444.5,-23932.5,
92.078,-3.7330804,-3.1799226,13.220957,-0.714133,-1.5821935,-0.22948602,22144.0,22524.5,-29820.5,
92.201,1.9531488,-2.9812038,10.759718,-0.13710852,-1.190627,-0.188850492,-22400.0,-31747.5,25731.5,
92.319,3.42079432,-1.7745264,9.055046,0.5830063,-0.337014268,-0.1642027,-11648.0,-30723.5,20355.5,
92.436,2.5109978,0.205478492,4.3288916,1.0503816,0.6507622,-0.103049552,-10112.0,25084.5,24707.5,
92.555,2.111166,1.4337039,4.1469324,0.8346802,1.4215047,-0.1717969,-19840.0,7932.5,-28284.5,
92.673,1.3665693,1.5582025,8.908999,0.4139359,1.748854,-0.29676776,28800.0,-5635.5,-20093.5,
92.794,-0.66610784,2.6403816,11.394181,0.56688536,1.2080684,-0.32021644,8832.0,-14083.5,-17277.5,
92.912,-4.91821,3.3945554,12.591282,0.495606668,0.24054316,-0.32128232,-2688.0,-20228.5,-17021.5,
93.030,-4.3436016,4.2756216,12.354256,0.11696347,-0.64531136,-0.363916364,-3456.0,-23300.5,-15997.5,
93.149,-1.463377,2.8917728,9.74697,-0.6669692,-1.3203942,-0.47596376,7040.0,-20227.5,-12925.5,
93.264,0.78717256,0.59573332,7.4150176,-1.188836,-1.4761413,-0.5805503,24192.0,-7171.5,-14973.5,
93.385,2.300308,-0.06267209,5.952161,-0.9968497,-0.775877936,-0.595339,-21376.0,8444.5,-25468.5,
93.500,3.3202378,-0.7641732,7.862734,-0.54373024,0.175126608,-0.5837479,-11392.0,17148.5,31363.5,
93.616,2.3410094,-1.472857,12.033433,0.233407568,0.96718632,-0.5317877,-11648.0,17916.5,28803.5,
93.733,-0.46499496,-1.84395816,14.327078,0.99522376,1.1085447,-0.47796224,-19584.0,9468.5,-28796.5,
93.852,-4.714703,-0.24223724,12.653531,0.8941013,0.79278664,-0.5007448,-31104.0,-7427.5,-21117.5,
93.968,-4.999613,2.2357616,10.108495,0.36290832,-0.21670644,-0.534852,28800.0,-19459.5,-16765.5,
94.089,-1.628577,2.513489,6.3663572,-0.118322892,-1.70956252,-0.5892104,-27776.0,-23811.5,-16509.5,
94.206,1.3067143,1.838324,4.7430888,-0.2868604,-1.8457248,-0.66834976,-384.0,-22531.5,-24701.5,
94.324,3.169403,1.82635316,5.9952564,-0.15722643,-1.017826,-0.7224416,21632.0,-23810.5,25986.5,
94.440,5.9730132,2.1639354,8.782107,-0.15309628,0.09678665,-0.7891905,-32384.0,-26882.5,16770.5,
94.555,5.1206776,2.6523526,10.455654,-0.19000132,1.2000746,-0.8527418,31872.0,-31234.5,19586.5,
94.678,2.4128356,1.3307533,11.691062,-0.17734434,1.759779,-0.90749984,15744.0,30461.5,-31101.5,
94.795,-0.73314552,1.2708984,9.842738,-0.22730606,1.646266,-0.9466698,-7552.0,29436.5,-19581.5,
94.910,-1.3149366,0.12168144,8.21947,-0.14576854,0.8969735,-0.9581276,-29312.0,31484.5,-13181.5,
95.025,-2.0691102,0.0761916,6.8571688,0.16466024,-0.082276136,-0.9105641,24448.0,-32515.5,-12925.5,
95.140,-1.9398232,0.2150553,7.27376,0.7572728,-1.0733834,-0.84021808,27776.0,27132.5,-12669.5,
95.261,-0.101076308,1.1176694,10.237782,1.4839159,-1.0514002,-0.763210336,-23424.0,11004.5,-16765.5,
95.381,1.4575491,4.9316324,10.728593,1.7610369,-0.49875696,-0.7510863,-10368.0,-17923.5,-28798.5,
95.500,0.49986832,7.965086,9.600924,1.4760554,0.12050181,-0.79092248,-7040.0,20476.5,21377.5,
95.616,-1.6692784,8.065642,6.952937,0.5342437,0.492350216,-0.868995936,-12416.0,1020.5,9089.5,
95.733,-2.6078056,6.0114176,6.2250996,-0.6770947,0.08426291,-0.9585274,-23680.0,-4611.5,7552.5,
95.854,-3.40507468,4.4192732,8.655214,-1.6242356,-0.62159616,-1.0138183,-32128.0,5884.5,18049.5,
95.972,-3.3308544,1.76889232,10.393405,-1.7641284,-1.127875,-0.97078468,31360.0,32508.5,-29822.5,
96.089,-0.7618759,-2.069013,12.509879,-1.1868374,-1.2680342,-0.86499908,-27520.0,-8707.5,-20862.5,
96.205,1.7999198,-3.8646644,12.8091544,-0.2305036,-0.8837952,-0.71631292,-17024.0,4348.5,-20093.5,
96.323,4.7399992,-2.923743,12.181873,0.6782667,-0.23069574,-0.6174554,-8832.0,1788.5,-24189.5,
96.438,5.1709556,-0.431379136,9.983996,1.2179864,1.031537,-0.570025,-10112.0,-13315.5,-28798.5,
96.560,-1.4753482,1.84550668,6.2370704,1.1244581,1.6232169,-0.56829304,-27008.0,29692.5,32385.5,
96.678,-1.190438,0.87585496,3.347269,0.8141626,1.1196028,-0.5637632,19328.0,14332.5,26241.5,
96.792,-2.0523508,1.4839821,2.7846318,0.5571595,0.30822462,-0.56243084,4224.0,4604.5,17281.5,
96.909,-4.583022,2.5661614,5.913853,0.008246779,-0.8129163,-0.57695308,-384.0,1531.5,12929.5,
97.025,-5.234245,3.3179408,10.079764,-0.66497064,-1.5714017,-0.59387344,4480.0,5116.5,17281.5,
97.148,-1.628577,3.1838656,13.082093,-1.1731146,-1.3201276,-0.5826821,16512.0,18684.5,30849.5,
97.264,1.5772591,1.5175011,13.73571,-1.2691743,-0.83463292,-0.565362,26496.0,-29955.5,-25470.5,
97.380,2.7192934,-0.28054446,11.640784,-1.1009034,0.00725525236,-0.53152124,31872.0,-10755.5,-18558.5,
97.499,2.1063776,-1.6619988,9.6105,-0.716797636,0.957194064,-0.49474936,27520.0,6396.5,-14205.5,
97.617,0.4639553,-1.95409132,8.32242,0.044885368,1.3450301,-0.40508476,12672.0,14844.5,-13181.5,
97.740,-1.1521308,-1.688335,8.181163,0.799640368,1.2116656,-0.313022,-6784.0,11003.5,-18301.5,
97.855,-2.8975038,-0.9700746,8.655214,1.3526832,0.70392148,-0.23188418,-20864.0,-1028.5,-26494.5,
97.970,-3.3787384,0.22942052,9.840344,1.6068884,0.19151406,-0.15953961,-27520.0,-17924.5,29569.5,
98.086,-3.5654864,1.4121561,10.426924,1.534144,-0.104126068,-0.12916288,-28032.0,28923.5,18817.5,
98.204,-3.4601412,2.8486772,9.924141,1.0964795,-0.41095764,-0.12703118,-25472.0,12539.5,7553.5,
98.322,-3.242269,3.176683,8.456495,0.4050094,-0.53099892,-0.13022873,-21376.0,4091.5,2689.5,
98.442,-1.4298582,2.3985672,7.654438,-0.46472412,-0.33781368,-0.13196074,-18304.0,3067.5,2689.5,
98.559,-1.9877074,2.5087006,7.9537132,-1.1068988,0.10078359,-0.12223485,-17536.0,11259.5,11137.5,
98.677,-1.6333654,0.959652,8.518744,-1.386551,0.1187698,-0.13995461,-21376.0,26363.5,21121.5,
98.791,-1.99489,-0.4577154,8.992797,-1.297153,-0.206314432,-0.12090254,-24960.0,-20484.5,30337.5,
98.906,-2.4952782,-1.4010308,9.3303792,-0.988056368,-0.67235732,-0.08519656,-24704.0,-3588.5,-28542.5,
99.029,-1.3484554,-0.716289136,10.101312,-0.6220702,-1.031682,-0.04549366,-15744.0,12027.5,-21117.5,
99.145,3.643455,1.0913332,10.687892,-0.27686804,-0.98478456,0.013527778,-3712.0,19963.5,-17277.5,
99.261,2.0321574,-1.4800396,12.0454032,-0.0481100384,-0.40043236,0.009530841,7296.0,24316.5,-14973.5,
99.381,1.3043201,-2.3084332,9.641625,0.28390224,0.32754314,-0.0009944253,10624.0,25084.5,-14461.5,
99.498,-0.72356872,-2.0043698,6.2011576,0.87957908,0.42893212,0.059226096,5760.0,18428.5,-15485.5,
99.621,-1.3987336,-1.7194598,7.664015,1.9404994,-0.12770799,0.20857832,3200.0,764.5,-17277.5,
99.739,-0.7690585,-0.3427937,10.189898,2.4366526,-0.032714112,0.28705152,7552.0,-29187.5,-27774.5,
99.855,-0.04361546,4.7329136,12.028645,1.84483932,0.67354468,0.230827932,12672.0,5116.5,16257.5,
99.974,-2.401904,10.471816,12.347074,0.25192672,1.1943455,0.09666407,10624.0,-13571.5,-7039.5,
100.091,-2.2510696,8.8605176,10.2856652,-1.5649477,1.5194297,-0.06361311,2432.0,-11267.5,-10367.5,
100.216,-3.1225588,3.7441086,8.554658,-3.0232968,1.1054803,-0.181522768,-13184.0,9467.5,6273.5,
100.335,-3.6851964,-1.5758076,9.153209,-2.5279432,0.5401802,-0.070407908,-27776.0,-18948.5,25729.5,
100.451,-3.077069,-6.060148,9.502762,-1.2950213,-0.10132821,0.076546152,30848.0,7931.5,32386.5,
100.567,-2.9429938,-6.2468952,10.096523,0.08219011,-0.86421024,0.247082132,32384.0,17659.5,-30845.5,
100.685,-1.3819742,-4.831922,9.655991,1.2893983,-1.4545579,0.38444356,-24192.0,11771.5,-24957.5,
100.808,0.76801896,-1.8080452,8.899423,1.9325056,-1.5295671,0.45145888,-3456.0,-11780.5,-22910.5,
100.925,1.625143,0.7369913,7.5993716,1.8208578,-1.0271521,0.4366702,20096.0,26364.5,-31358.5,
101.041,1.4000882,2.4009614,6.08863,1.2993907,-0.014061745,0.39643436,-28288.0,5884.5,15745.5,
101.158,1.1343317,2.9971178,4.7550596,0.4706924,0.7701373,0.30503774,-21888.0,-7171.5,1408.5,
101.275,-0.54160932,3.42568,6.184398,-0.48497528,0.7315003,0.20324906,-24704.0,-8707.5,-1407.5,
101.390,-1.652519,3.9093086,6.8451976,-1.1505986,0.399754468,0.14809132,-30592.0,-3843.5,4992.5,
101.515,-2.0164378,2.7720628,9.0119508,-1.6292984,0.1755263,0.12331032,30848.0,12284.5,20097.5,
101.632,-1.3628206,0.97162308,9.727817,-1.82661392,0.25932878,0.11531644,27520.0,-31235.5,-30078.5,
101.750,-0.48893696,-0.6612225,9.347138,-1.717764,0.4619735,0.13836544,21632.0,-2819.5,-18302.5,
101.865,-0.8672208,-0.8982485,8.092577,-0.9524837,0.7476213,0.223766668,13440.0,20988.5,-13693.5,
101.980,-1.3053598,-1.106544,8.475649,0.17092212,0.84341452,0.381912136,2688.0,30716.5,-14717.5,
102.103,-3.8025122,-2.0881668,9.830768,1.3241717,0.21962586,0.53086468,-6784.0,21243.5,-16765.5,
102.221,-4.9110276,0.05224958,10.944071,1.89093732,-0.68714592,0.61986316,-6016.0,-3588.5,-22142.5,
102.338,-3.5367556,3.5741204,11.013503,1.6340676,-1.4091262,0.61546652,7296.0,-31235.5,-30334.5,
102.456,-0.46499496,5.424838,10.187504,0.480418268,-1.677054,0.497956536,-32384.0,13308.5,22401.5,
102.574,1.3162911,4.8143168,9.320803,-0.6629722,-0.96519952,0.358330216,-11136.0,12540.5,16257.5,
102.698,2.3457978,2.4608166,10.2617232,-1.4183934,0.10504699,0.24588306,-1664.0,26108.5,21633.5,
102.817,3.049693,-0.9652862,11.841897,-1.3631024,1.088027,0.23695656,-5504.0,-17667.5,-30334.5,
102.933,2.2476356,-4.918113,12.16272,-0.78594468,1.592707,0.28078968,-21376.0,1276.5,-19837.5,
103.048,-1.2215626,-4.6906644,10.721411,0.121493332,1.6554588,0.35526592,21888.0,9724.5,-14717.5,
103.167,-3.53914968,-3.0266938,8.482832,1.1997337,1.0118188,0.4831679,1920.0,1788.5,-17533.5,
103.285,-3.608582,-0.30209224,6.337627,1.71147484,-0.20644764,0.5724328,-5760.0,-23812.5,-28030.5,
103.413,-2.9094748,1.83592984,6.277772,1.3830598,-1.1002961,0.55178196,5248.0,14076.5,24449.5,
103.532,-3.0555212,4.9651512,5.6073956,0.6284382,-1.2408551,0.50781568,24704.0,-1795.5,13184.5,
103.649,-1.7363162,7.146269,7.2474236,-0.178676652,-0.757492,0.4357376,-21376.0,-7171.5,5504.5,
103.766,-0.54160932,6.116762,8.755771,-0.8291115,-0.116383344,0.35886316,-11648.0,-515.5,9088.5,
103.883,-0.32613122,5.0393716,10.175532,-1.4487702,0.32834256,0.29877588,-11136.0,13564.5,18049.5,
104.007,-0.8720092,2.4320862,11.413335,-1.4899386,0.6880669,0.28811738,-18304.0,-31491.5,-32126.5,
104.123,-1.8991218,-0.24223724,11.722187,-1.112228,0.66528432,0.33141752,-28800.0,-12803.5,-20606.5,
104.240,-2.5120376,-2.174358,10.881822,-0.49456788,0.27425066,0.375916768,30848.0,-3.5,-16766.5,
104.358,-2.9717242,-2.5741896,9.964843,0.024634212,-0.32062684,0.4297422,30336.0,7932.5,-13437.5,
104.474,-1.7794118,-2.07859,9.064623,0.44964188,-0.9097754,0.47064418,-28544.0,9212.5,-15229.5,
104.597,-0.29021824,-0.38588932,8.317632,0.666942,-1.1746392,0.478238336,-13696.0,4860.5,-20093.5,
104.713,0.5453582,0.9381042,7.5179688,0.7451488,-0.978123,0.46984476,896.0,-3586.5,-29566.5,
104.827,2.0082154,1.0290838,7.9513187,0.70890984,-0.374319016,0.42747724,13184.0,-13058.5,25473.5,
104.948,1.2181289,2.7840338,8.822808,0.9853647,0.17112968,0.43973456,19840.0,-22530.5,17281.5,
105.064,2.918012,4.3594184,8.461284,0.44444584,0.8693946,0.29797646,20608.0,-31746.5,13953.5,
105.185,1.6275372,5.142322,9.136449,-0.5336046,1.3297086,0.16048182,13184.0,-32002.5,19329.5,
105.301,0.1455265,3.6243984,9.2585532,-1.4207916,1.5202292,0.049500212,-3200.0,-18947.5,-31102.5,
105.417,-1.5711162,0.41856244,9.373475,-1.8258145,1.3031955,0.008198529,-24960.0,5372.5,-16765.5,
105.535,-3.8432136,-2.734601,9.670356,-1.5164516,0.718576836,0.04803467,20352.0,32252.5,-12413.5,
105.651,-5.552674,-4.7074236,9.689509,-0.62073784,-0.22430064,0.15275441,9856.0,-14339.5,-15741.5,
105.768,-5.17439,-4.333928,9.579376,0.49907064,-1.3863436,0.32795352,13952.0,-9987.5,-15997.5,
105.889,-2.9549648,-2.8471286,9.744576,1.4451456,-2.1895948,0.45585552,-28288.0,-21251.5,-18045.5,
106.005,0.17425692,-0.72347176,9.615289,1.79207968,-2.1648138,0.5036855,2176.0,24317.5,-25725.5,
106.122,2.4559312,0.897402736,8.662397,1.6284718,-1.5037203,0.46997804,32128.0,3325.5,16002.5,
106.240,7.73754064,3.3131524,5.090248,1.0844888,-0.43853648,0.35633176,-17792.0,-8194.5,-3454.5,
106.357,4.5532516,3.0976742,5.980891,0.3571794,0.9930332,0.24961354,-14976.0,-12546.5,-10110.5,
106.479,4.012162,3.856636,6.107784,-0.6441866,2.222491,0.09359976,-26496.0,-10754.5,3969.5,
106.592,0.928430464,3.79199268,8.03751,-1.73614992,2.9408738,-0.05215522,11648.0,765.5,29314.5,
106.711,-3.0866458,1.9029674,9.071805,-2.22724,2.5603654,-0.09812,-28288.0,26620.5,-15741.5,
106.826,-7.673936,-1.5758076,9.229823,-1.93279932,1.407249,-0.00685660036,2944.0,-6659.5,-17277.5,
106.943,-7.673936,-4.3147744,8.60733,-1.0677288,-0.38164676,0.090935128,-13696.0,18427.5,-30588.5,
107.064,-4.8631436,-4.049018,7.79809,0.22834478,-2.0257204,0.28904998,-8320.0,26363.5,31619.5,
107.180,-1.1808612,-3.4744096,7.939348,1.4602008,-2.8554844,0.4533241,18560.0,18172.5,-27772.5,
107.296,1.5245867,-2.090561,8.147643,2.2747768,-2.4886988,0.5491173,-13952.0,-3331.5,-27261.5,
107.411,4.55804,1.0673912,9.280101,2.3373952,-1.3822134,0.52446956,14208.0,-31234.5,28034.5,
107.527,6.066387,4.366601,9.569799,1.6957536,-0.185796816,0.41601936,29824.0,9469.5,13442.5,
107.644,5.4845964,6.3178752,8.262566,0.6016587,0.87605616,0.25614188,31872.0,-3330.5,9601.5,
107.766,3.86851,5.7169304,6.292137,-0.9376951,1.6240163,0.07108368,21376.0,-4098.5,19329.5,
107.880,2.786331,4.5030704,5.0136336,-2.1710168,1.82799332,-0.03909856,-128.0,13052.5,-27773.5,
107.997,0.89491165,2.0921094,10.204263,-2.7332526,1.0251418,0.02218781,-24960.0,-18435.5,-17533.5,
108.116,-1.5256264,-1.1448512,11.896963,-2.3207686,0.015648822,0.14382793,26240.0,23548.5,-28540.5,
108.235,-2.267829,-6.5820836,12.828308,-1.2020259,-0.4181521,0.27559364,22912.0,-15363.5,17539.5,
108.357,-1.7315278,-8.126343,12.382986,0.6075209,-0.7455012,0.46371612,22912.0,-7939.5,3459.5,
108.473,-1.9661596,-4.3722352,10.537057,2.2441332,-0.9609361,0.6325201,25728.0,-20483.5,12675.5,
108.589,-0.80257748,0.08576841,8.023145,2.907625,-1.1122868,0.71685544,-31872.0,15868.5,-32380.5,
108.705,0.35142782,3.3849784,6.4262124,2.4117384,-1.0045028,0.65929956,-17792.0,-23043.5,-23933.5,
108.824,2.1758096,4.510253,5.3129088,1.1693571,-0.5449882,0.5048846,-1920.0,12284.5,-28541.5,
108.945,6.9091464,5.7719976,5.468532,-0.39344544,-0.4032302,0.3053042,7552.0,3069.5,30594.5,
109.060,5.1230716,2.894167,5.0447584,-1.3917471,0.062412984,0.187927468,12416.0,13309.5,29570.5,
109.178,5.7910544,1.6922776,5.782172,-2.0385848,0.5616304,0.1343685,9600.0,-26114.5,32130.5,
109.295,5.467837,-0.52475304,7.90343468,-2.135444,1.4839903,0.12357678,-2176.0,4604.5,31363.5,
109.412,4.141449,-3.0242996,10.000755,-1.4329157,2.1161726,0.22203466,-25216.0,31228.5,27267.5,
109.530,-0.28303564,-5.6076436,11.616842,-0.1797425,1.9808096,0.370720736,13440.0,-21507.5,19075.5,
109.654,-5.0379204,-4.4560324,12.445235,1.0138761,0.98357376,0.49222764,-9088.0,-26116.5,17027.5,
109.772,-6.328395,-0.77375,11.250529,1.7614366,-0.2049821,0.6034757,-18816.0,21499.5,25731.5,
109.887,-5.210303,2.6475642,9.220246,1.6471243,-1.4705456,0.6415798,-16256.0,-3844.5,-26237.5,
110.003,-1.7171626,3.4687756,8.207499,0.65561736,-2.1752056,0.5445875,2944.0,-24579.5,-15741.5,
110.120,1.4695201,3.1742888,7.55867,-0.30298138,-1.92606332,0.4250791,32128.0,-28931.5,-15741.5,
110.243,3.2579888,2.5901034,6.244253,-1.137009,-0.8530189,0.3035722,-7808.0,-18947.5,-23933.5,
110.358,4.6585964,0.7322029,6.131726,-1.4910044,0.41187852,0.20338228,-640.0,-771.5,-31869.5,
110.474,4.9147764,-1.1161208,6.9146296,-1.2854286,1.3514252,0.19205762,-8320.0,19708.5,29827.5,
110.591,3.1239132,-2.9309256,8.681551,-0.52228004,1.6473318,0.32275748,-29056.0,-28931.5,26243.5,
110.708,0.5573292,-3.5773602,10.237782,0.3319987,1.1820884,0.45585552,16256.0,-23555.5,26499.5,
110.832,-1.2862062,-2.7609374,11.358268,1.0152085,0.5569674,0.542589,-1920.0,-31492.5,29059.5,
110.947,-1.8632088,-0.52954144,11.38221,1.4058424,0.24001022,0.586955,-12672.0,16891.5,-29052.5,
111.063,-1.3963394,1.7712865,10.563393,1.3653401,-0.012596201,0.5940163,-16768.0,-6660.5,-23421.5,
111.183,-1.484925,4.0050764,9.335168,0.6075209,-0.2224354,0.51021384,-16000.0,-30468.5,-19069.5,
111.297,-1.99489,3.772839,9.256159,-0.39531064,-0.443199584,0.39297036,-12416.0,26363.5,-17021.5,
111.414,-2.042774,2.9492338,9.701481,-1.1669861,-0.6823496,0.3134313,-6272.0,31995.5,-15485.5,
111.535,-1.4992902,0.9644404,10.118072,-1.5203153,-0.84728984,0.28358752,2944.0,-15363.5,-16253.5,
111.652,-0.08431685,-1.0873904,9.962448,-1.4165281,-0.77347976,0.2919811,13184.0,6140.5,-22396.5,
111.768,1.6562676,-2.6316504,9.416571,-0.790074736,-0.208845808,0.3479382,19584.0,24572.5,-32892.5,
111.886,2.8653396,-3.2589314,8.997585,0.08099104,0.54111284,0.4250791,18304.0,-32515.5,26755.5,
112.002,2.0489168,-1.8104394,8.650426,0.8132299,1.2381786,0.47237616,7296.0,29948.5,28547.5,
112.124,0.4448017,-0.13210395,8.588177,1.2018654,1.5231603,0.5019535,-9600.0,16891.5,-31868.5,
112.240,-0.9534121,1.2948403,8.518744,1.087553,1.2316502,0.49475904,-29568.0,-1796.5,-30845.5,
112.356,-3.848002,2.6978426,9.026316,0.5483662,0.30049724,0.43507144,21120.0,-17412.5,30594.5,
112.471,-4.3771204,3.3777956,10.386222,-0.27886652,-0.8831291,0.36299332,18560.0,-27652.5,30082.5,
112.588,-3.7713876,3.3418828,11.71261,-1.0785205,-1.7347432,0.30543744,28288.0,-27396.5,-29053.5,
112.711,-0.70441512,1.4911649,12.545792,-1.5532234,-2.0410418,0.2638693,-12672.0,-11524.5,-23165.5,
112.829,2.4966326,-1.2645614,11.755706,-1.4467716,-1.6743895,0.25867328,11136.0,9468.5,-27516.5,
112.947,3.595571,-2.1552044,9.988785,-0.7170641,-0.5948167,0.32289072,29824.0,31228.5,25987.5,
113.062,4.0648348,-2.3204044,8.382276,0.12202625,0.61705464,0.38391064,31360.0,-25091.5,20867.5,
113.179,3.1981336,-1.4537034,7.652044,0.7709956,1.6678494,0.42401324,17792.0,-26883.5,24963.5,
113.295,1.6059894,-0.70431816,7.4150176,1.1155316,2.2659244,0.43786928,-6272.0,27131.5,30851.5,
113.418,-0.25909358,0.392226216,6.96969636,1.2262467,2.2856428,0.43547112,28544.0,8443.5,29059.5,
113.538,-2.540768,1.5007417,6.46452,1.016674,1.6650516,0.4226809,6272.0,-12036.5,14466.5,
113.653,-3.4361992,1.68509508,8.059058,0.563821,0.4998111,0.3896396,-6272.0,-30981.5,-893.5,
113.768,-4.9253924,2.0178892,7.3647392,0.10777051,-0.63278764,0.37191984,-6528.0,23802.5,-5245.5,
113.885,-4.4585232,1.1655533,7.845974,-0.23849748,-1.7787096,0.36192748,1408.0,18171.5,6018.5,
114.007,-2.3181072,0.392226216,8.48762,-0.40996604,-2.5998134,0.3632598,22912.0,19707.5,29314.5,
114.124,0.77759576,-0.196747384,8.968855,-0.44807024,-2.6568368,0.358197,-13184.0,24315.5,-19325.5,
114.240,3.1957396,-0.4744748,9.98639,-0.33269196,-1.7692502,0.34607296,18048.0,31996.5,-14717.5,
114.356,5.719228,-0.28054446,10.364675,-0.21438264,-0.44240016,0.29344664,-28288.0,-25859.5,-17789.5,
114.473,4.581982,-0.21590102,10.711834,-0.1289814,0.909097536,0.27319548,-27008.0,-18947.5,-19581.5,
114.596,1.9292068,0.12168144,10.328761,-0.07115905,1.911396,0.2465492,20608.0,-17667.5,-17277.5,
114.711,-0.8911628,0.464052268,9.756547,-0.07475628,2.1510792,0.23788918,-8320.0,-18180.5,-19069.5,
114.834,-2.2941652,-0.08900832,9.265736,-0.066629184,1.6634528,0.24614952,32384.0,-21508.5,-28029.5,
114.950,-3.80730036,0.12168144,10.0630048,0.009046167,0.7642752,0.27013116,17280.0,-27652.5,26498.5,
115.068,-4.1975556,0.23181471,10.872245,0.039556116,-0.16767736,0.28611892,14720.0,32251.5,20354.5,
115.193,-2.51922,0.205478492,11.001532,-0.06476393,-0.910175,0.27399486,18560.0,32251.5,24194.5,
115.308,-0.25191098,0.16238287,10.666344,-0.21504878,-1.2030175,0.2426855,26752.0,-32260.5,32642.5,
115.428,1.2851665,0.16717127,9.983996,-0.32829536,-1.0304829,0.212442016,-26752.0,-28676.5,-25213.5,
115.546,1.73288232,-0.26857344,9.615289,-0.29085736,-0.40482896,0.19338994,-18560.0,-25860.5,-21117.5,
115.665,1.2708013,-0.5415124,9.825979,-0.12271954,0.232016368,0.19325672,-16256.0,-25348.5,-20349.5,
115.788,0.8494218,-0.740231136,10.453259,0.09258215,0.73403176,0.20284936,-19072.0,-27140.5,-22141.5,
115.906,-0.036432864,-0.62052108,10.577758,0.220883824,0.891511,0.20631338,-25984.0,-29700.5,-24701.5,
116.023,-0.8720092,-0.172805368,10.24257,0.2680477,0.7838602,0.20444814,29056.0,-32004.5,-32637.5,
116.139,-1.3652148,0.19111328,9.136449,0.21089148,0.4603747,0.199518584,20096.0,29435.5,27522.5,
116.256,-2.0715044,1.088939,9.225035,0.0054489224,-0.11318579,0.178734516,14976.0,23547.5,25218.5,
116.380,-1.7602582,1.4672227,9.502762,-0.3418849,-0.60760692,0.15008978,17792.0,19963.5,27010.5,
116.496,-0.62540644,0.679530436,10.6280368,-0.53693544,-0.71432516,0.10718934,25984.0,22267.5,32386.5,
116.616,0.24129456,-0.038730084,11.272077,-0.6247348,-0.567904,0.087604344,-30080.0,31227.5,-27773.5,
116.731,2.1590502,-0.4481386,10.958436,-0.59555716,-0.13876618,0.07321538,-23936.0,-24580.5,-24701.5,
116.847,2.0058212,-0.8000862,10.096523,-0.46885424,0.43532724,0.070284284,-25728.0,-15620.5,-27517.5,
116.964,0.22214094,-1.3507526,8.9401248,-0.2803321,0.7989153,0.0733486036,-32384.0,-8964.5,-31101.5,
117.087,-1.6597016,-1.307657,7.405441,-0.006675124,0.6957943,0.09333329,21632.0,-7684.5,24962.5,
117.201,-3.433805,-1.1352744,6.6656328,0.27950558,0.07120625,0.12930572,14720.0,-9732.5,20866.5,
117.318,-2.993272,-0.9197963,6.9433602,0.55689308,-0.6377171,0.16074829,14720.0,-15620.5,23170.5,
117.435,-2.1337536,-0.85754708,7.764571,0.8561304,-1.1642472,0.19338994,23424.0,-26116.5,31618.5,
117.552,-0.098682104,-0.464898,8.030328,0.9417981,-1.3114676,0.19712042,-28032.0,24827.5,-23933.5,
117.673,3.274748,0.037884372,12.198633,0.6478899,-0.8647432,0.4435982,-10880.0,11003.5,-18557.5,
117.788,1.18461,0.58376232,8.762954,0.48148416,0.09052478,0.458520136,3712.0,-259.5,-17022.5,
117.904,1.0960245,0.9692288,10.216234,0.348386136,0.77546652,0.41468704,3712.0,-7171.5,-20094.5,
118.022,-0.17050814,1.84311252,11.523468,0.13734784,1.0232767,0.37844812,-5248.0,-11524.5,-23166.5,
118.141,-1.7195568,1.86226608,11.990337,-0.16561998,0.9777116,0.3479382,-18560.0,-13572.5,-28798.5,
118.264,-2.2869826,0.42813924,11.389393,-0.495100868,0.6345079,0.3108999,-28544.0,-12804.5,30849.5,
118.382,-1.7865944,-0.38110092,10.40777,-0.5729079,0.11197501,0.303439,30080.0,-9988.5,29313.5,
118.497,-1.9158812,0.25815094,10.764506,-0.5934255,-0.35313524,0.29837616,29824.0,-6404.5,30337.5,
118.614,-1.4011278,1.041055,11.355874,-0.723192768,-0.43334044,0.2673333,-31104.0,-1028.5,-30334.5,
118.731,-0.50090796,0.7250203,11.106877,-0.8905311,-0.04097446,0.22509898,-26496.0,6139.5,-25469.5,
118.868,-0.33331382,-0.4696864,9.821191,-0.82165052,0.20217256,0.20311582,-25216.0,19707.5,-24701.5,
118.985,-0.9845367,-2.3730766,8.557052,-0.48843932,0.53951408,0.222834052,-27264.0,28667.5,-26493.5,
119.102,-2.2031854,-3.3044212,8.348757,0.30402014,0.6538265,0.27679272,32128.0,32251.5,-30077.5,
119.219,-2.756246,-2.88783,8.976037,1.0996771,0.232016368,0.3597958,25728.0,24315.5,31106.5,
119.334,-3.266211,-1.94930284,9.936112,1.4613998,-0.14969115,0.35340068,25216.0,8699.5,28290.5,
119.457,-1.9350348,0.19111328,10.836332,1.2864672,-0.3170296,0.27839148,29056.0,-14084.5,24961.5,
119.573,-0.37640948,2.6284106,11.485161,0.60938616,-0.28185654,0.171406784,-30080.0,-29444.5,20865.5,
119.692,0.770413168,3.4999,11.114059,-0.107131464,-0.14143081,0.07814493,-25984.0,28923.5,18561.5,
119.811,1.0050449,3.701013,10.845909,-0.84736424,0.04256153,-0.026574824,-24448.0,31739.5,21889.5,
119.928,0.23171776,2.6427758,9.775701,-1.4871406,0.12276674,-0.086928576,-24448.0,-22532.5,27265.5,
120.045,-0.7930005,1.0171128,8.320026,-1.7783842,0.044826464,-0.11184281,-28032.0,-4.5,-31358.5,
120.167,-1.2526872,-1.0035934,7.240241,-1.5145863,-0.2770602,-0.07693623,-29568.0,23803.5,-28029.5,
120.283,-4.7051264,-1.0514774,5.197987,-0.7270564,0.11770395,0.015925944,-27008.0,-20996.5,-28029.5,
120.400,-2.3827504,-4.051412,5.7031636,0.23460666,0.7237729,0.055095926,-31104.0,-13572.5,32642.5,
120.518,-3.2638168,-4.6236268,5.0591236,1.1708225,1.2315171,0.10412502,24960.0,-19460.5,27010.5,
120.636,-4.4681,-4.23816,5.731894,2.1184964,0.76707304,0.1756702,12416.0,28411.5,18050.5,
120.755,-5.8711024,-1.8894479,7.9513187,2.487014,-0.32968658,0.17154002,9088.0,2043.5,9858.5,
120.875,-5.6580184,2.6739006,9.586558,1.8295178,-1.3550342,0.09999485,17280.0,-26116.5,3457.5,
120.991,-3.0243966,6.5118056,10.872245,0.5049329,-1.922999,-0.09119197,32640.0,24571.5,7041.5,
121.107,1.8166792,6.5094112,10.594518,-0.7102693,-2.2563436,-0.2316177,-14464.0,23035.5,20097.5,
121.223,3.3800928,3.5262364,8.626484,-1.85059552,-1.72555024,-0.3587203,6016.0,-28163.5,-27518.5,
121.347,3.238835,0.18632488,7.8507624,-2.1915342,-0.42734504,-0.44332216,22656.0,3836.5,-15229.5,
121.464,3.212499,-1.92296668,7.8962532,-1.5664133,0.7857254,-0.392161336,24192.0,-28931.5,-13693.5,
121.582,2.0225806,-3.67791636,8.535504,-0.36040408,1.5693915,-0.26838952,9856.0,-6915.5,-18813.5,
121.700,-1.841661,-2.3371636,8.901817,0.738353968,1.8999382,0.090935128,-12672.0,-6660.5,-25213.5,
121.817,-2.636536,-1.6572104,10.472413,1.2607536,1.6298785,0.10212655,28800.0,-17156.5,32642.5,
121.941,2.0560994,-0.86712384,10.201869,1.1137996,0.5124681,-0.027374212,11904.0,31227.5,21122.5,
122.058,-3.3883152,2.6260164,9.586558,0.7703295,-0.7360418,-0.108378808,10624.0,17659.5,17538.5,
122.175,-1.6333654,2.3698368,9.380657,0.26604924,-1.3247907,-0.1411537,21376.0,8955.5,26754.5,
122.291,1.8238618,2.2932224,8.411006,-0.25208706,-1.2742962,-0.17566058,-28544.0,8187.5,-27773.5,
122.408,2.5660644,0.43292764,8.535504,-0.66350516,-0.59641548,-0.16526854,-14976.0,14331.5,-20093.5,
122.525,2.2500298,-0.22068942,8.870692,-0.77928308,0.25879584,-0.15274482,-11392.0,25851.5,-18557.5,
122.648,1.3138969,-1.3986366,10.654373,-0.55318964,0.761077636,-0.11517359,-18304.0,-26372.5,-21117.5,
122.767,-0.16811394,-1.817622,12.189056,-0.21185122,0.7961174,-0.07813531,-28800.0,-17156.5,-27261.5,
122.883,-1.7985654,-1.0634484,12.428476,0.09844433,0.7092507,-0.04762536,27520.0,-14340.5,-32381.5,
122.999,-2.875956,0.5167247,10.889005,0.4313892,0.5853456,0.004201592,21376.0,-16644.5,27522.5,
123.113,-2.0499566,0.892614336,8.432553,0.57754384,0.3460623,0.03617709,16512.0,-23044.5,24194.5,
123.235,-4.2334684,-6.79277332,6.646479,-0.09127696,-0.18006786,-0.08519656,13440.0,-30212.5,23682.5,
123.352,-1.1210062,-0.69952976,5.0471524,-0.69747908,-0.6062746,-0.25693164,14720.0,-24324.5,23938.5,
123.469,-1.9470058,-1.6859408,6.70394,-0.33002734,-1.0915029,-0.2469393,21632.0,-14852.5,29058.5,
123.585,-1.5854814,-2.6292562,9.751759,-0.36679912,-1.3543681,-0.3387356,-29312.0,-7940.5,-31101.5,
123.702,0.1574975,-3.79523268,12.416505,-0.40197216,-0.9474798,-0.4661047,-13184.0,-1540.5,-25981.5,
123.824,1.9292068,-3.77129068,13.790777,0.00065259636,-0.24441854,-0.49754728,-1152.0,5371.5,-25980.5,
123.943,1.9028706,-2.054648,12.9552,0.6653432,0.4999444,-0.45624556,3200.0,4604.5,-24956.5,
124.057,1.1223607,0.67234784,11.250529,1.0229359,1.1458494,-0.423737136,-2176.0,-4100.5,-21885.5,
124.176,-0.096287908,2.6284106,10.175532,0.6613463,1.4939826,-0.467303768,-15488.0,-16900.5,-21629.5,
124.294,-1.8488436,3.0857032,10.25933,-0.11485891,1.283877,-0.5441782,-32640.0,-22788.5,-28797.5,
124.415,-3.1057994,2.0418312,10.927312,-0.7386475,0.696727,-0.5960052,20864.0,-16132.5,26754.5,
124.530,-3.445776,0.56460876,11.293625,-0.9230395,-0.0071337184,-0.5909424,16000.0,-2308.5,18818.5,
124.645,-2.435423,-0.72347176,10.778872,-0.68415592,-0.64930824,-0.53898216,18304.0,12027.5,13955.5,
124.762,-0.8624324,-0.86233544,10.046246,-0.27793396,-1.0002394,-0.47916132,29056.0,24571.5,14211.5,
124.879,0.0018743873,-0.11295034,9.454878,0.10697113,-0.94308317,-0.461841236,-24448.0,29691.5,17539.5,
125.006,1.1582738,0.9309216,8.813231,0.3806281,-0.66449668,-0.38070348,-10880.0,30459.5,25219.5,
125.121,2.6115542,1.9005732,8.56184,0.33453006,-0.2266988,-0.3916284,-1152.0,27131.5,29571.5,
125.236,1.9890618,1.3786373,8.971249,0.07179808,0.36165036,-0.40002196,2176.0,24316.5,31875.5,
125.353,1.8190734,-2.1839348,6.964908,0.0296970016,1.0300715,-0.43053196,-896.0,25339.5,31107.5,
125.471,0.7536537,-2.6723518,3.87399336,0.6084535,1.361151,-0.3783053,-10624.0,25083.5,29827.5,
125.593,-0.74272232,-2.7465722,4.022434,0.062338656,0.41960596,-0.4986131,-22400.0,20219.5,29571.5,
125.709,-0.9462295,-4.1447864,5.3081204,-0.36799824,-1.0464706,-0.58494692,-21632.0,22779.5,27779.5,
125.826,-0.1298067,-5.3706176,7.462902,0.11802932,-1.6542716,-0.58614608,-6272.0,28155.5,28291.5,
125.941,2.6163426,-6.1870404,9.778095,1.0839558,-1.1884952,-0.5323206,17024.0,22012.5,30851.5,
126.064,4.6346544,-3.7449544,12.227364,1.3284351,-0.173939232,-0.61532368,-32384.0,4604.5,-30332.5,
126.182,4.4550896,-0.12970975,12.790001,1.2039971,0.859935168,-0.6866024,-28544.0,-17411.5,-23421.5,
126.306,1.7592184,2.714602,11.396575,0.707977236,1.7733686,-0.77759932,25728.0,30204.5,-17533.5,
126.423,-1.6908262,3.5429956,9.684721,-0.26834124,1.9293822,-0.8948428,896.0,21756.5,-17277.5,
126.540,-3.25424,2.1088688,8.724647,-1.1532632,1.2265875,-0.9890373,-21376.0,31227.5,-22141.5,
126.655,-4.357967,0.6484058,8.762954,-1.3537762,0.04775755,-0.9634569,-31104.0,-12036.5,-30845.5,
126.769,-3.85039632,-0.785721,10.247358,-1.0634652,-1.0576621,-0.8921782,-26496.0,11259.5,27523.5,
126.892,-2.365991,-2.2533668,11.669515,-0.46658932,-1.73527616,-0.80517816,-7296.0,30459.5,24707.5,
127.010,0.4376191,-3.2230182,12.354256,0.14400941,-1.6939745,-0.754816836,18048.0,-26883.5,22147.5,
127.130,2.312279,-2.507152,11.403758,0.7952437,-0.938286864,-0.6959286,-23680.0,-30211.5,18819.5,
127.245,3.121519,-0.6516457,9.138844,1.2775408,0.224155716,-0.69193168,-12672.0,21500.5,22403.5,
127.361,1.7879488,0.79684632,7.2929132,1.085821,1.2391113,-0.7446912,-13952.0,-1027.5,31874.5,
127.483,-0.14896029,1.9771876,8.001597,0.35198336,1.6678494,-0.841816864,-27776.0,-19971.5,-21117.5,
127.601,-3.053127,2.3985672,9.584165,-0.35694004,1.2043378,-0.90336968,22400.0,-23555.5,-16509.5,
127.717,-5.478453,0.7537507,10.587335,-0.6039508,0.17499338,-0.8921782,11648.0,-13827.5,-15741.5,
127.833,-5.1480536,-1.5782018,10.726199,-0.34721416,-1.0194248,-0.8149041,13184.0,-1795.5,-18045.5,
127.950,-1.3963394,-3.076972,8.870692,0.5423708,-1.9280618,-0.43013224,30848.0,1788.5,-21628.5,
128.071,0.23650616,-0.77375,8.985614,1.1682911,-1.8403956,-0.339535,-9856.0,-8707.5,-27517.5,
128.185,2.9826556,0.97162308,8.583388,1.180282,-1.1054921,-0.3536575,12416.0,-27650.5,25474.5,
128.301,3.9906144,3.09528,9.198698,0.66401092,-0.08480753,-0.423071,24704.0,19709.5,17538.5,
128.415,3.1598262,5.0058528,9.533886,-0.2534194,0.82209752,-0.54857484,25216.0,8189.5,16514.5,
128.530,0.91167108,4.7329136,9.828373,-1.2104194,1.3811358,-0.6434355,13696.0,6397.5,25474.5,
128.646,-5.2294564,3.2916044,8.118913,-2.0280596,1.3885968,-0.16926548,-6016.0,26108.5,-23933.5,
128.769,-2.3564144,-1.1759758,7.5730352,-1.8829706,0.78585864,0.012994855,-22656.0,-9987.5,-21117.5,
128.887,-2.4282404,-2.8303692,7.419806,-0.8057961,-0.010464504,0.2950454,-31360.0,17404.5,-27772.5,
129.002,-1.8919392,-3.6132732,8.887452,0.45843512,-0.87726696,0.47783864,-31104.0,27388.5,-32124.5,
129.119,-0.18487334,-2.8614938,9.876257,1.3893218,-1.2467172,0.5784282,-23168.0,20988.5,-29820.5,
129.235,1.991456,-0.5774255,10.410164,1.71973532,-1.0701858,0.5898861,-10880.0,5628.5,-26236.5,
129.358,3.4471307,2.3267412,9.332773,1.3709358,-0.34767276,0.52060584,896.0,-16386.5,-28029.5,
129.477,2.5445166,3.346671,9.126872,0.42819164,0.39162736,0.36952164,3456.0,-32514.5,-27773.5,
129.593,1.601201,2.4488456,9.531492,-0.25808244,0.914693264,0.2706641,-3456.0,29692.5,-25469.5,
129.710,0.09045982,1.71143132,8.908999,-0.711868036,1.1469152,0.19338994,-16512.0,-29955.5,-20093.5,
129.828,-1.6597016,0.8447303,8.4134,-0.980861936,0.7807958,0.15621844,-32640.0,-17923.5,-15485.5,
129.950,-1.7602582,0.626858,8.353545,-0.711868036,-0.30050892,0.2741281,24192.0,-2819.5,-17789.5,
130.065,-0.48654276,-0.11295034,9.181939,-0.4897716,-0.724051,0.3252889,27008.0,7676.5,-20604.5,
130.180,0.5980306,-1.652422,10.297637,-0.038250924,-0.95400816,0.39083864,-30848.0,14588.5,-25980.5,
130.296,3.2101048,-1.2214658,11.133213,0.46163268,-0.775877936,0.449993336,-21120.0,15356.5,-28796.5,
130.415,4.301861,-0.31885168,11.140396,0.9034275,-0.34713984,0.512612,-15232.0,7932.5,-29564.5,
130.536,3.9810376,1.0290838,10.587335,0.8825101,0.29423536,0.50515104,-13696.0,-3843.5,-26237.5,
130.653,2.9539252,2.2501268,9.174756,0.3550477,0.7137805,0.44959364,-19328.0,-13571.5,-20861.5,
130.769,1.826256,2.597286,7.9752608,-0.4215572,0.8026458,0.36339304,-29568.0,-16643.5,-18045.5,
130.883,0.9906797,2.5709498,7.19953968,-1.3313934,0.6602216,0.28172228,25216.0,-6403.5,-17533.5,
131.000,0.03299904,0.5454551,9.205881,-1.6352937,0.20910058,0.29357984,14720.0,14076.5,-22908.5,
131.116,-1.0515745,-3.0793662,11.78683,-0.9415588,-0.23629146,0.40775904,9856.0,32764.5,31875.5,
131.239,-1.4418292,-5.2030232,13.314331,0.08392212,-0.4177524,0.51194584,8320.0,-24579.5,23171.5,
131.354,-0.57033984,-3.8191746,12.442842,0.90942296,-0.32462376,0.592151,8576.0,-28675.5,24195.5,
131.472,0.18862212,-0.36434152,10.101312,1.4671288,-0.08187644,0.6463762,7808.0,20732.5,-30588.5,
131.588,0.23171776,2.003524,7.058282,1.2165208,0.24040992,0.60667324,6272.0,252.5,-21116.5,
131.704,-1.367609,2.8726192,7.9752608,0.29442748,0.13209292,0.4839673,2176.0,-15619.5,-17789.5,
131.826,-0.8313078,3.3179408,8.569023,-0.55678696,-0.197121468,0.3919045,128.0,-17923.5,-16509.5,
131.943,0.27002498,2.087321,9.076593,-1.133545,-0.16767736,0.32382332,640.0,-8195.5,-17789.5,
132.058,0.9667376,-0.1823822,8.480437,-1.3615036,-0.117449192,0.29864264,1152.0,7676.5,-23420.5,
132.174,2.0704646,-2.8064272,7.046311,-1.165787,-0.18992698,0.3423425,-640.0,25083.5,-32892.5,
132.290,1.2061579,-3.551024,6.7614008,-0.23583286,-0.4749086,0.50341904,-640.0,-27396.5,24451.5,
132.412,1.7759778,-4.367447,8.025539,0.9800354,-0.388574768,0.65117248,384.0,-28675.5,25731.5,
132.529,2.0177922,-3.290056,9.481214,1.5906341,-0.248282268,0.6988693,640.0,20732.5,-31868.5,
132.645,2.8198498,-0.7474138,10.551422,1.72253316,0.230284352,0.6703578,-640.0,-6916.5,-19581.5,
132.763,2.0345516,2.6499584,11.305595,1.0971457,0.7644084,0.54938376,-3968.0,31995.5,-17277.5,
132.880,-0.73314552,4.80474,12.095682,0.041554584,1.0155493,0.3875079,-12928.0,15099.5,-19069.5,
132.996,-2.2726174,4.912479,11.789225,-0.9579461,1.0292721,0.27186316,-25472.0,14843.5,-23165.5,
133.119,-3.89349168,2.81037,10.563393,-1.5994546,0.6098602,0.1820653,27008.0,26619.5,-29821.5,
133.235,-2.7107564,-0.03154748,8.944913,-1.6735312,-0.05602958,0.19978504,20864.0,-20740.5,27778.5,
133.350,-1.2574756,-1.5015874,7.56106432,-1.1005036,-0.5444553,0.2894497,21888.0,-4100.5,22658.5,
133.468,-0.7930005,-2.1552044,6.6752096,0.013442799,-0.689011136,0.445197032,26240.0,5115.5,22403.5,
133.587,-0.07474005,-2.0881668,7.795696,1.0146755,-0.6056084,0.5774956,30592.0,-516.5,29058.5,
133.707,0.566906,-1.010776,9.430936,1.4299574,-0.42960996,0.6233272,-29312.0,-20228.5,-27261.5,
133.821,1.3162911,1.4432807,10.893793,1.1213937,-0.103992832,0.5789612,-24448.0,21755.5,-22909.5,
133.940,1.4743085,3.2748452,11.396575,0.3461212,0.37177592,0.475840184,-22912.0,5627.5,-24701.5,
134.058,0.23411196,3.3131524,10.735776,-0.49030452,0.815569136,0.36432564,-27264.0,-260.5,-27006.5,
134.176,-1.3245134,1.946063,9.799643,-1.0292249,0.9136274,0.3043716,29568.0,4347.5,-31357.5,
134.297,-2.2151566,0.42095664,9.842738,-1.2034913,0.50247576,0.29744356,21120.0,14331.5,29058.5,
134.414,-2.6604778,-0.711500736,9.9672368,-0.9628758,-0.05722867,0.3440745,16000.0,25595.5,24194.5,
134.531,-2.435423,-1.4249728,10.12286,-0.4825771,-0.50968192,0.38337772,16768.0,32507.5,24706.5,
134.647,-1.439435,-1.6548162,9.720634,0.112433608,-0.7431031,0.44972688,22400.0,-31492.5,29058.5,
134.763,-0.098682104,-0.986834,9.220246,0.62857148,-0.72525008,0.5274006,30592.0,28411.5,-30333.5,
134.884,1.0146217,-0.22308362,8.169191,0.92394504,-0.405628384,0.5540469,-26240.0,13563.5,-25469.5,
135.002,1.0337753,0.6292522,8.33918,0.3457215,0.25879584,0.45585552,-20608.0,-260.5,-24702.5,
135.117,0.2652366,1.1320345,9.143632,-0.182940052,0.5359168,0.3700546,-22144.0,-7940.5,-27006.5,
135.232,-1.4753482,-0.22547782,9.98639,-0.3460151,0.497412984,0.3223578,-27264.0,-7172.5,-30334.5,
135.349,-2.315713,-0.019576468,10.355098,-0.38505184,0.28304392,0.336746784,-31360.0,-5380.5,31873.5,
135.466,-2.411481,-0.53672404,10.316791,-0.29125708,-0.054430812,0.35246808,32128.0,-3588.5,-32638.5,
135.589,-1.9637654,-0.433773336,10.09413,-0.061299936,-0.37898212,0.384310332,-30848.0,-2820.5,-30590.5,
135.708,-0.795394836,-0.0052112564,9.509944,0.13041982,-0.5238044,0.4046947,-25728.0,-5636.5,-28286.5,
135.824,-0.16332555,-0.10576773,8.762954,0.118695468,-0.20724704,0.3632598,-17792.0,-9220.5,-25982.5,
135.942,-0.16332555,0.037884372,8.722252,0.033027784,0.2697208,0.2937131,-14464.0,-13316.5,-25470.5,
136.058,-0.64456004,-0.13928655,8.9880088,0.07366331,0.38683104,0.28398722,-16000.0,-15620.5,-27006.5,
136.182,-1.757864,1.5797503,9.852315,0.065136516,0.35791988,0.27546042,-19072.0,-19204.5,-29822.5,
136.298,-2.437817,0.72023184,10.331156,-0.12378539,0.55017256,0.190725316,-22400.0,-20228.5,-32126.5,
136.416,-3.47690036,0.99795928,10.424529,-0.22397526,0.42480196,0.16301322,-27520.0,-20484.5,29313.5,
136.535,-4.085028,0.9189506,9.469243,-0.1908007,0.12836244,0.1531541,-31360.0,-19204.5,27777.5,
136.651,-3.6229472,0.459263868,7.96089536,-0.054105444,-0.38551044,0.1756702,-31104.0,-17668.5,27777.5,
136.776,-2.303742,-0.16562277,6.82365,0.17705076,-1.0350127,0.2136411,-24704.0,-19716.5,32385.5,
136.891,-0.65413684,-0.4601096,7.508392,0.45390528,-1.3014753,0.24974676,-12160.0,-23300.5,-29566.5,
137.007,0.24608296,0.7369913,9.720634,0.51306,-0.9164369,0.229229152,4992.0,-30211.5,-28030.5,
137.122,2.1494734,1.9269094,11.813167,0.26964648,-0.16887646,0.17114033,17024.0,27388.5,-29310.5,
137.241,1.2755897,3.997894,12.215392,-0.009872675,0.65129508,0.10186009,18560.0,24060.5,-30334.5,
137.370,-1.2933888,3.2102018,10.304819,-0.4366123,1.2012736,0.037509404,9088.0,24316.5,-31870.5,
137.487,-2.425846,1.3235707,7.776542,-0.97699824,0.7813288,-0.019380336,-5248.0,-32516.5,-29822.5,
137.602,-2.102629,-0.69234717,6.691969,-0.811525,-0.082142904,0.021921348,-13184.0,-19972.5,-26238.5,
137.718,-1.7842002,-2.0283118,9.351927,0.048615844,-0.5681704,0.14196269,-11392.0,-11524.5,-22910.5,
137.835,-0.881586,-1.6021438,12.404534,0.747014036,-0.5040862,0.2136411,-3456.0,-14852.5,-21886.5,
137.957,0.7297117,0.5478493,13.833873,0.9980217,-0.122245508,0.22270082,3200.0,-27395.5,-26494.5,
138.075,1.5604997,3.083309,12.7612708,0.7502116,0.14781422,0.17806836,6528.0,23804.5,-32382.5,
138.192,1.8717458,3.368219,10.297637,-0.0053428112,0.6001343,0.06682027,6784.0,14844.5,27521.5,
138.309,0.39452348,2.1615412,8.233835,-0.8468314,0.9713165,-0.054819844,-128.0,16635.5,26497.5,
138.424,-1.0180554,0.638829,6.8547748,-1.284496,0.86393216,-0.10158401,-10880.0,29179.5,30081.5,
138.545,-1.901516,-0.81445144,6.6871804,-1.1728482,0.2510684,-0.07427161,-20352.0,-19460.5,-31870.5,
138.660,-3.1919908,-1.8607176,6.871534,-0.4095664,-0.212976,0.0257850544,-23680.0,-3844.5,-28286.5,
138.777,-3.85039632,-3.0721836,7.8507624,0.612184,-0.4693129,0.16820924,-20864.0,-1028.5,-26494.5,
138.893,-4.2430452,-1.89184208,8.59057,1.3477536,-0.61533432,0.244151068,-14720.0,-12804.5,-26238.5,
139.011,-3.5223904,0.48799428,10.419741,1.4098394,-0.9501444,0.25467634,-4224.0,-32004.5,-31870.5,
139.135,-0.8672208,4.376178,11.497131,0.80803392,-1.0643237,0.18566252,11392.0,14076.5,25473.5,
139.251,0.02821058,5.269215,11.243346,-0.3240319,-0.8468902,0.062290408,25472.0,7164.5,22401.5,
139.366,3.8349912,4.1894296,10.7669,-1.5778712,-0.07241703,-0.13036196,32640.0,13820.5,27521.5,
139.482,3.67697368,0.2150553,10.089341,-2.184606,0.906166464,-0.241610052,28544.0,-25347.5,-23166.5,
139.601,1.7831604,-2.7657258,9.067017,-1.6876536,1.646266,-0.212299168,12416.0,6140.5,-14717.5,
139.720,-0.82173108,-4.0801424,8.063847,-0.445538832,1.7504528,-0.062414024,-11904.0,27899.5,-19581.5,
139.843,-2.6054112,-4.075354,7.264183,1.0794259,1.1104098,0.120778932,-32640.0,29179.5,-30845.5,
139.961,-4.396274,-2.9907808,7.628102,2.1434108,-0.029250108,0.27266256,20096.0,11515.5,24962.5,
140.077,-3.81687732,-0.50559944,9.0119508,2.558026,-1.0591276,0.344340984,24448.0,-16132.5,19585.5,
140.196,-1.9901016,3.9164912,9.603318,2.094115,-1.5523497,0.31609592,-25728.0,19707.5,10369.5,
140.312,0.36339884,8.312245,8.887452,0.7961763,-1.5486192,0.17926744,-7296.0,-1540.5,640.5,
140.434,1.7616126,6.636304,7.276154,-1.04428,-1.1357356,-0.05295461,7552.0,-6659.5,640.5,
140.548,2.4080472,2.9851468,6.9122352,-2.4052372,-0.535662,-0.25813072,14976.0,7164.5,18305.5,
140.664,2.1303196,-0.40743716,6.5076156,-2.720329,0.28877288,-0.32447988,14464.0,-26371.5,-25214.5,
140.781,1.3330505,-2.9859924,6.70394,-1.90562,1.070707,-0.25959626,3456.0,14332.5,-14973.5,
140.899,0.6483089,-4.7385484,7.8483688,-0.5317394,1.2896058,-0.093856592,-13440.0,-27140.5,-17789.5,
141.021,-2.3420492,-4.712212,8.604936,0.8004397,0.99663044,0.053230688,-32128.0,-23556.5,-27517.5,
141.138,-3.1441066,-2.5023636,8.509168,1.7061456,0.26012814,0.16341292,24704.0,29179.5,-32381.5,
141.255,-3.97010632,0.4712349,8.420583,2.0009864,-0.7237845,0.223766668,26240.0,4859.5,31618.5,
141.373,-2.8807444,2.987541,8.073423,1.3738669,-1.0234216,0.13223681,-25216.0,-22276.5,29825.5,
141.490,-0.72835716,3.902126,8.83478,0.189041568,-0.9882485,-0.023510504,-12928.0,28411.5,29057.5,
141.605,0.78717256,3.296393,9.931324,-0.78607784,-0.81211688,-0.14901434,-2688.0,28411.5,-32126.5,
141.727,1.6586621,1.7904401,10.549027,-1.3128742,-0.22110308,-0.24254266,4736.0,-23299.5,-24446.5,
141.847,1.8645632,-1.319628,11.664726,-1.2064224,0.37177592,-0.241610052,4224.0,-3331.5,-17790.5,
141.965,0.80872035,-2.9021952,11.583323,-0.6220702,0.8001144,-0.18751818,-4224.0,14843.5,-16509.5,
142.083,-0.47217756,-3.0147228,11.341509,0.1866434,0.935877,-0.089992892,-16256.0,22267.5,-19581.5,
142.199,-1.2239568,-1.7290366,10.553816,0.8863739,0.8256948,-0.00685660036,-28544.0,17659.5,-25725.5,
142.321,-1.484925,-1.2334368,8.633666,0.7462146,0.46890152,-0.0661445,28800.0,4603.5,-32381.5,
142.434,-1.7626524,-0.10097933,8.521139,0.18850864,0.09478818,-0.20590406,26240.0,-2308.5,29569.5,
142.551,-1.628577,0.27012192,8.772531,0.2449987,-0.36192852,-0.191381868,25216.0,-3332.5,28801.5,
142.667,-1.5399916,0.5119363,9.689509,0.191173268,-0.733510436,-0.19058248,29568.0,-5380.5,31873.5,
142.785,-0.400351468,1.4265213,10.826756,-0.032655224,-0.8527524,-0.209767792,-27520.0,-6660.5,-29566.5,
142.910,0.7488653,2.1519644,11.078146,-0.3879829,-0.6293236,-0.26252736,-17536.0,-3844.5,-23422.5,
143.025,1.3091085,1.81438216,10.608883,-0.6509814,-0.21350892,-0.30356258,-11392.0,3835.5,-19581.5,
143.143,1.6227488,0.49038848,9.742182,-0.7526368,0.41787392,-0.32874324,-9344.0,15355.5,-18045.5,
143.259,0.68661608,-0.6851645,9.596135,-0.58636424,0.9200225,-0.31621954,-14976.0,28411.5,-20349.5,
143.375,-0.46260076,-1.4776454,10.278483,-0.13124632,1.0288724,-0.26226088,-26240.0,-27396.5,-26237.5,
143.499,-2.1481188,-1.2310426,10.855486,0.34172456,0.779863236,-0.196311432,27520.0,-22788.5,31106.5,
143.618,-2.8089184,-0.5534834,11.154761,0.62257608,0.31262124,-0.14701587,19328.0,-25092.5,25730.5,
143.735,-2.4042984,0.32279438,10.412559,0.56648564,-0.214574768,-0.15674176,16256.0,-31748.5,23682.5,
143.854,-1.1257946,0.56221456,9.814008,0.27297724,-0.63465284,-0.19338034,18560.0,29691.5,27522.5,
143.971,-0.18726754,0.626858,9.495579,0.115497928,-0.72578308,-0.21323178,25728.0,27643.5,-31869.5,
144.094,0.70576968,0.887825968,10.414952,-0.0004132688,-0.4633175,-0.2388122,-32384.0,27131.5,-27261.5,
144.210,1.682604,0.892614336,10.881822,-0.12671645,-0.12371105,-0.2589301,-28800.0,28667.5,-23933.5,
144.330,1.5940184,1.1727359,10.541845,-0.31990176,0.303828,-0.28224558,-28288.0,31483.5,-24445.5,
144.447,0.68182768,0.8207883,9.126872,-0.5106889,0.7093839,-0.31621954,-31360.0,-28676.5,-28285.5,
144.561,-0.53203252,0.12407564,7.34319168,-0.55745304,0.858069936,-0.33180758,27776.0,-19972.5,31874.5,
144.687,-1.7913828,-1.1256976,6.526769,-0.36186956,0.386964268,-0.2942364,20352.0,-9732.5,22146.5,
