# epoch_start_s=1609459202
timestamp_s,accel_x,accel_y,accel_z,gyro_x,gyro_y,gyro_z,mag_x,mag_y,mag_z,wind_vane_deg
# wind_vane_deg is blank for the first 270 s, populated for the final 30 s
0.118,-1.5830872,-1.4944048,5.6433088,-0.6464515,0.981042464,-0.07240637,3200.0,-23811.5,-21118.5,
0.235,-5.521549,-1.7003062,8.3990344,0.18224678,-0.5973481,0.10292595,-4480.0,-18436.5,-20350.5,
0.351,-4.1736136,-1.2525904,8.748589,1.3056526,-1.0290174,0.19299024,4480.0,-27395.5,-20606.5,
0.468,-2.5599216,1.1703417,7.1851748,2.084922,-0.45292544,0.23535778,17536.0,18172.5,-30078.5,
0.591,-2.0834754,4.227737,4.8220972,1.82805232,0.074004104,0.21084324,26752.0,-9475.5,11648.5,
0.709,-1.6501248,5.4200496,3.9242716,0.755540836,0.108777452,0.1326365,31360.0,-24835.5,-9087.5,
0.827,-0.9893251,5.534971,3.8620224,-0.67189864,-0.15128992,0.049366984,-32128.0,-27395.5,-16255.5,
0.943,0.07848883,6.13831,6.08863,-2.1427718,0.010186341,-0.093856592,32384.0,-18691.5,-895.5,
1.057,-0.61343544,4.5150412,8.480437,-3.1587932,-0.021522694,-0.19604496,28544.0,7164.5,26753.5,
1.180,-0.81694264,-0.029153272,10.029486,-3.3537104,-0.15661916,-0.21443088,23936.0,-13827.5,-11902.5,
1.297,-1.4059162,-5.624403,9.198698,-2.2850626,-0.5027539,-0.167799952,23424.0,-30723.5,-8829.5,
1.413,0.6243668,-8.835027,10.644796,-0.30031676,-0.63225468,0.00939761,29824.0,764.5,-16508.5,
1.528,1.9507546,-8.674615,11.415729,1.762236,-0.31982744,0.15368703,-28800.0,-1283.5,-18301.5,
1.645,1.3210795,-3.9891628,10.889005,3.2686816,-0.05203265,0.26240376,-25728.0,32764.5,-13181.5,
1.767,-0.024461806,1.7521329,9.450089,3.328769,-0.0089989568,0.2506794,-21376.0,-20483.5,-20862.5,
1.883,-0.029250264,5.0250064,6.9361776,1.9474274,-0.24042164,0.11944661,-14976.0,4092.5,20865.5,
2.001,0.18383372,7.1295096,7.910618,0.175318752,-0.24628378,-0.049490592,-8832.0,-12035.5,1152.5,
2.119,-0.34528488,6.0712724,7.747812,-1.3495129,-0.23229452,-0.188850492,-8320.0,-9475.5,896.5,
2.237,-0.69004992,3.0737322,7.520363,-2.3759262,-0.448928536,-0.27318584,-9344.0,6908.5,19585.5,
2.354,-0.64695424,-0.4792632,7.5778236,-2.5675128,-0.63212144,-0.29543546,-9088.0,-28675.5,-25982.5,
2.477,-1.7363162,-2.4927866,8.849145,-1.68325716,-0.7986605,-0.20763608,-2944.0,8444.5,-17277.5,
2.594,4.304255,-7.2716136,10.565787,-0.11046226,-0.097864192,-0.12436655,5504.0,27133.5,-21629.5,
2.711,5.005756,-6.4504024,11.679091,1.4283586,0.844213936,0.0187237968,4224.0,23549.5,-22141.5,
2.830,3.93554784,-2.212665,10.03188,2.4330552,1.7158126,0.07294891,-7552.0,-1795.5,-17022.5,
2.946,0.82069132,2.6044686,7.278548,2.3461886,2.1466824,0.047368516,-26496.0,28156.5,-24958.5,
3.070,-1.1760728,4.1894296,4.759848,1.2211839,1.91326132,-0.09052581,17024.0,-1283.5,19328.5,
3.187,-3.3787384,4.984305,4.1349616,-0.03438723,1.0996182,-0.15634206,2176.0,-11267.5,384.5,
3.303,-5.260581,5.2189364,5.1046132,-1.1500657,-0.0452378536,-0.21203272,-7040.0,-9220.5,-2175.5,
3.421,-6.376279,4.2133716,6.8404092,-2.1778114,-1.6686606,-0.27238644,-8064.0,6395.5,16257.5,
3.539,-4.1281236,0.7633275,10.13962,-2.5528574,-3.0396102,-0.2653252,7808.0,-28931.5,-21118.5,
3.661,1.8693516,1.6012981,11.418123,-1.80023408,-3.39453832,-0.29716744,-18560.0,11004.5,-11901.5,
3.781,6.858868,-6.409701,10.170744,-0.09407483,-1.7785764,-0.06774328,19328.0,-32002.5,-30589.5,
3.895,7.502908,-5.5717308,9.107718,1.3373616,0.0105860344,0.013661011,-28800.0,31741.5,19074.5,
4.012,5.568393,-2.4305374,8.0327216,2.4094734,1.7239398,0.070284284,-30848.0,11773.5,21890.5,
4.129,1.9651198,1.3379359,7.52993968,2.4800858,2.6785416,0.046169432,15744.0,-18690.5,31105.5,
4.247,1.397694,3.3011812,6.433395,1.70867692,2.6031324,-0.03710009,-13184.0,15868.5,27777.5,
4.370,-4.7793464,6.612362,5.0830656,0.38382564,1.6438678,-0.18045692,25728.0,-4867.5,14720.5,
4.486,-5.282129,5.4655396,5.2865724,-0.8316429,0.28650792,-0.2004416,10624.0,-7427.5,9600.5,
4.601,-5.2533984,4.0529604,6.490856,-1.9097502,-1.1501246,-0.25946304,7296.0,3836.5,20865.5,
4.718,-3.433805,1.0171128,8.992797,-2.3679324,-2.3665256,-0.28051356,17024.0,29948.5,-23934.5,
4.834,0.28199598,-2.267732,10.402982,-1.771989,-2.622596,-0.24001128,-18304.0,1276.5,-13693.5,
4.955,4.581982,-4.8031916,10.920129,0.09471385,-1.6121706,-0.17965752,12160.0,21757.5,-27005.5,
5.071,6.8612624,-4.0346528,10.877033,1.5469342,0.043094456,-0.1058474,28800.0,16381.5,26242.5,
5.188,5.676132,-0.4553212,9.593741,2.283037,1.6050975,-0.09851969,27008.0,-6914.5,25729.5,
5.303,2.0656762,3.3299116,7.2234816,2.2304106,2.6360408,-0.16899902,8320.0,29949.5,27265.5,
5.420,0.13834387,5.1111976,4.3959292,1.544403,2.7230408,-0.3247463,-20352.0,4092.5,19585.5,
5.536,-2.2247334,6.4375852,1.3433223,1.0531794,1.6690484,-0.378971468,20096.0,-12547.5,4480.5,
5.661,-7.712243,8.467869,1.5348585,0.60565568,-0.17100814,-0.43772644,6784.0,-20483.5,-14463.5,
5.777,-7.2118552,8.381678,3.6249966,-0.5626491,-1.74033884,-0.484224136,4224.0,-23043.5,-17279.5,
5.896,-7.06580932,7.04571236,7.6233132,-2.05364,-3.4050632,-0.5598995,11904.0,-13315.5,2176.5,
6.013,-2.126571,3.4831408,11.549804,-1.8392708,-3.1195486,-0.5159332,-30336.0,9212.5,28545.5,
6.129,4.043287,6.495046,10.572969,-1.3718957,-1.7816406,-0.4895534,-2432.0,30716.5,-30846.5,
6.250,6.2579236,-0.9509209,12.399746,-0.6475174,0.0621465232,-0.54737576,14464.0,-20482.5,30849.5,
6.367,4.2252464,-2.2222418,9.847527,-0.35107784,1.72806992,-0.59320736,7040.0,-16386.5,-29054.5,
6.485,0.69619288,-1.3699062,7.058282,0.204896092,2.289906,-0.55670196,-17536.0,-14595.5,-17278.5,
6.603,1.0577173,-1.5351062,5.0016628,0.74821304,1.705687,-0.5216622,16000.0,-22019.5,-15742.5,
6.720,-0.9079222,-1.2525904,3.3161444,1.2468976,0.8607346,-0.4133451,-4224.0,28667.5,-24958.5,
6.841,-3.73547468,-1.0993614,5.15968,1.1483065,-0.27572788,-0.3901629,-14464.0,13563.5,26497.5,
6.958,-3.98447132,3.571726,9.727817,0.011710793,-0.9353558,-0.46690408,-11904.0,3067.5,17793.5,
7.074,-4.1257296,4.866989,11.578534,-0.95821256,-1.3490388,-0.52832368,-4480.0,8443.5,25985.5,
7.191,-0.019673408,3.0258482,12.433265,-1.4149293,-1.6509408,-0.549241,6528.0,25084.5,-25726.5,
7.308,-0.70680936,3.473564,10.996743,-1.5201821,-1.5022547,-0.40588416,21888.0,-19203.5,-13950.5,
7.425,3.6506376,-2.744178,8.894634,-1.0913106,-0.54192392,-0.5451108,-26752.0,4604.5,-11133.5,
7.546,2.8629452,-3.242172,7.1755976,0.0616725,0.58148192,-0.46010926,-23680.0,15612.5,-9341.5,
7.663,2.1183486,-2.8471286,7.652044,1.1822804,1.2036718,-0.3561889,32384.0,10748.5,-9853.5,
7.779,0.8470276,-1.379483,8.748589,1.74784708,1.5679259,-0.3224814,16512.0,-8963.5,-11646.5,
7.895,-1.1856496,0.99317084,9.067017,1.6840294,1.4649382,-0.3331399,-1920.0,32251.5,-24958.5,
8.011,-3.4170456,3.7752332,8.588177,0.9756388,0.73603016,-0.40894848,-16512.0,13051.5,22401.5,
8.132,-4.690761,4.5054644,8.944913,-0.28752656,-0.4857003,-0.4662379,-22912.0,7419.5,12417.5,
8.247,-3.266211,3.2389322,9.945689,-1.2068222,-1.4099255,-0.5259255,-19584.0,17147.5,21889.5,
8.363,-0.16332555,0.9428926,10.6040944,-1.5874638,-1.72714916,-0.54551052,-9600.0,-28676.5,-25214.5,
8.482,2.9156176,-1.829593,10.079764,-1.3796232,-1.3667586,-0.52032984,8064.0,-4099.5,-11390.5,
8.599,3.93554784,-3.1176734,9.447695,-0.6672356,-0.29651196,-0.5039424,20608.0,16892.5,-8573.5,
8.721,2.7121108,-3.2732966,8.791684,0.24153468,0.797583,-0.447852,19072.0,25340.5,-10621.5,
8.838,1.385723,-2.4544794,8.748589,1.1383141,1.4637392,-0.379904068,7552.0,21756.5,-10621.5,
8.955,-0.060374856,-1.1496396,9.05744,1.72626352,1.7271372,-0.33220726,-11648.0,2555.5,-15997.5,
9.073,-1.8272958,0.8375477,9.308831,1.7129404,1.5070393,-0.33167436,-29568.0,-19716.5,-32638.5,
9.189,-3.7330804,3.0497902,9.332773,0.98896192,0.8134375,-0.369512032,22656.0,28411.5,10881.5,
9.306,-4.5758396,4.7855864,9.464455,-0.034120752,-0.25161302,-0.4602425,18304.0,24315.5,-382.5,
9.434,-3.95095268,3.85424184,9.25137,-1.0625328,-1.5150449,-0.5159332,19840.0,-32516.5,9601.5,
9.552,-1.5399916,2.0250718,9.406994,-1.68405652,-2.2551444,-0.55203884,32128.0,-13572.5,31361.5,
9.669,1.3019259,-0.436167536,9.220246,-1.7510718,-2.2384906,-0.5575013,-10624.0,14331.5,-14717.5,
9.786,3.8828752,-3.409766,8.612119,-1.2445265,-1.5083833,-0.52459324,16512.0,-20995.5,-10365.5,
9.902,5.077582,-3.84311636,8.106942,-0.3453489,-0.27412916,-0.49008632,32128.0,-3075.5,-17789.5,
10.023,5.4007992,-3.9293076,7.812455,0.7030477,1.1437176,-0.42666824,-32128.0,1020.5,-19580.5,
10.139,4.1606024,-2.8614938,7.7454176,1.5511978,2.4254022,-0.37257632,16256.0,-11779.5,-13437.5,
10.257,0.8566044,-0.72826016,8.205105,1.9274428,3.0642462,-0.3703114,-13696.0,29947.5,-15485.5,
10.372,-2.528797,1.4528575,8.099759,1.6148822,2.6053976,-0.4061506,18560.0,6395.5,26242.5,
10.488,-6.685131,3.7081956,6.9673024,0.6818639,1.0780346,-0.4558459,-2176.0,-6149.5,-5246.5,
10.603,-7.89899136,4.5413776,8.130884,-0.38944846,-0.84742312,-0.51873108,-8832.0,-6917.5,-16510.5,
10.728,-5.4353576,2.9468396,8.6695792,-1.3168712,-2.6878796,-0.5513727,-1408.0,3834.5,1154.5,
10.844,-0.35246748,0.12646984,9.100535,-1.5883964,-3.3732212,-0.55243856,22400.0,23547.5,32642.5,
10.961,4.0025852,-2.7657258,8.401429,-1.2473245,-2.7085304,-0.64010468,-1664.0,-14852.5,-16509.5,
11.078,6.7798596,-2.7274184,8.624089,-0.5765051,-1.0011721,-0.5335197,29056.0,3836.5,-22652.5,
11.195,6.92351168,-2.555036,9.292072,0.025833308,0.7661404,-0.5134018,-24448.0,11516.5,-27004.5,
11.316,4.495791,-1.5782018,9.766124,0.48694664,2.3102904,-0.51433444,31104.0,8956.5,-21884.5,
11.432,1.1750332,-0.8958543,9.301649,0.30042288,2.6907988,-0.5662946,6016.0,3324.5,-19324.5,
11.547,0.4304365,-3.1511922,7.7334468,-1.8207519,0.6075952,-0.80504492,-19328.0,5115.5,-28028.5,
11.665,-0.01009661,-4.0298644,7.22108736,-2.4314836,-1.1872962,-0.8572716,-17536.0,32507.5,18819.5,
11.782,1.3689635,-7.17824,7.8890696,-0.9423581,-1.4227157,-0.7073865,1152.0,-7939.5,-2684.5,
11.903,2.872522,-5.174293,7.2474236,0.8122973,-0.6463772,-0.5449776,17792.0,252.5,-13435.5,
12.018,5.4247412,-6.1750692,6.861957,2.2655838,0.382167932,-0.4473191,26496.0,-7939.5,-636.5,
12.136,4.3832636,-3.0913372,8.31045,3.063239,1.4841236,-0.41920728,24192.0,28412.5,31107.5,
12.251,1.5341635,0.60052176,8.652821,2.35738,1.2100668,-0.5277908,11904.0,-9987.5,-13437.5,
12.366,-2.4426056,6.351394,9.100535,1.4688608,1.1867514,-0.6337096,-1920.0,24571.5,-11389.5,
12.481,-2.5120376,5.305128,8.358334,0.33732796,1.015949,-0.678342036,-16768.0,10235.5,-15229.5,
12.603,-2.8304662,4.7760096,7.807667,-1.0538727,0.4804926,-0.7915886,-27520.0,13051.5,-21373.5,
12.719,-5.9572936,3.557361,8.770136,-1.814623,-0.456123,-0.8174355,31360.0,-28420.5,-23677.5,
12.834,-4.556686,-1.2094948,9.14842,-1.94745468,-1.612437,-0.75814752,-25216.0,251.5,-27772.5,
12.949,-1.4897134,-1.3866656,8.229047,-1.0140366,-1.9216666,-0.6692823,-2944.0,26363.5,-32636.5,
13.066,2.3984704,-2.8686764,5.813297,0.43218856,-1.370489,-0.474231768,21376.0,-29699.5,27267.5,
13.189,3.01378,-1.118515,5.123767,1.1276556,-0.16008319,-0.405218,-27008.0,27388.5,30339.5,
13.303,4.8118256,-0.476869,7.8675224,1.225847,1.2673563,-0.4090817,-23936.0,12284.5,-25212.5,
13.418,3.63866668,0.99795928,11.947242,0.9593846,2.3412,-0.45970956,24704.0,-3843.5,-15485.5,
13.534,-1.9086986,2.4823644,13.323908,0.5325117,2.2557988,-0.48528996,-3456.0,-17156.5,-12925.5,
13.651,-8.679501,3.9164912,12.007096,0.06540298,1.290272,-0.49608168,-29568.0,-22788.5,-23421.5,
13.772,-7.7146376,1.6012981,10.074976,-0.429551068,-0.67861912,-0.49421648,24960.0,-19460.5,-30333.5,
13.890,-4.044327,0.863884,8.918576,-0.5502586,-2.4054292,-0.46090864,-29824.0,-10500.5,-24701.5,
14.004,-0.19684434,0.7369913,7.716687,-0.5677119,-2.9651336,-0.4483849,1664.0,764.5,-18300.5,
14.119,4.909988,-0.002817057,6.739853,-0.6900182,-2.4112916,-0.464372668,-25728.0,10236.5,-25212.5,
14.235,3.2460176,0.25575674,6.411847,-0.7474408,-1.2687005,-0.4451874,3712.0,17405.5,22659.5,
14.350,6.0568104,-0.687558768,7.699928,-0.51148824,0.1311603,-0.5032762,18304.0,20989.5,8323.5,
14.472,6.066387,-1.6380568,8.676763,0.000919044,1.789756,-0.486489068,17280.0,21245.5,6787.5,
14.586,3.1622204,-1.4225786,10.374251,0.5109282,2.989903,-0.474631468,-384.0,15868.5,25219.5,
14.703,-1.8129306,-0.8072688,10.862668,0.7841855,2.9966976,-0.453048,31872.0,6908.5,-21628.5,
14.818,-3.1895966,2.7960048,9.840344,0.9003632,1.79881568,-0.482625336,-1408.0,-4868.5,-16253.5,
14.936,-8.631617,0.7776927,9.22264,0.8177598,-0.27119804,-0.371377236,-17536.0,-18692.5,-18301.5,
15.056,-5.138477,1.3762431,8.0327216,0.53397728,-2.084875,-0.348195016,-6784.0,-27908.5,-14205.5,
15.174,-0.7810295,1.8909964,7.142079,0.07126515,-3.041475,-0.3788382,23168.0,30716.5,-10621.5,
15.288,2.3050964,2.3147702,6.763795,-0.5426644,-2.791267,-0.45504648,-1664.0,29436.5,-23165.5,
15.403,7.3999576,0.99317084,7.168415,-1.0093734,-1.6017785,-0.5993359,32128.0,-29698.5,17538.5,
15.519,6.5907172,1.10091,9.316014,-1.3272632,-0.12970646,-0.59720424,-19840.0,-24066.5,-1661.5,
15.640,5.673738,-0.40264876,10.115677,-1.3051468,1.3171848,-0.6395718,-19328.0,-17154.5,-2173.5,
15.756,2.7815426,-1.6332684,10.278483,-0.79620344,2.2442076,-0.63051208,-32384.0,-10498.5,11394.5,
15.874,0.27002498,-0.24941984,10.163562,1.3736005,2.1597392,-0.56656104,9600.0,-10498.5,31106.5,
15.992,-1.700403,1.4767995,8.636061,3.49983768,1.1746273,-0.5427127,-12160.0,25596.5,-17277.5,
16.109,-2.8735618,5.8677652,7.5730352,3.0455194,0.37404084,-0.6099944,-23168.0,-27139.5,-21886.5,
16.225,-3.1201646,9.248379,5.8085084,1.4800522,-0.58136032,-0.7364309,-25472.0,-3587.5,17280.5,
16.347,-2.2726174,7.962692,5.861181,0.09178276,-1.4578887,-0.83089184,-24192.0,-17667.5,2176.5,
16.462,-1.2886004,6.337029,2.0687654,0.026499466,-1.76618584,-0.7897234,-19584.0,-20995.5,-3455.5,
16.580,0.17904532,4.268439,1.5013397,-0.4159615,-1.3972685,-0.78865752,-12672.0,-20995.5,-3711.5,
16.696,-0.1298067,4.09845,2.7104116,-1.2774347,-1.2433864,-0.8447479,-10368.0,-17155.5,-895.5,
16.811,1.6706331,5.702565,10.36228,-2.755369,-0.720587,-0.9941001,-10112.0,-3587.5,14464.5,
16.931,1.8334386,4.4216676,13.457983,-3.071793,0.14541605,-1.0078229,-16000.0,27900.5,-27262.5,
17.049,2.5421224,-0.12252714,14.647902,-2.7876108,0.248670252,-0.9630572,-26240.0,8188.5,-12157.5,
17.167,0.24608296,-8.789537,12.342285,-1.2320028,0.32980812,-0.8548734,-30592.0,-21507.5,-14461.5,
17.283,0.5573292,-6.457585,7.2809424,1.103674,0.41947276,-0.637973,-32384.0,-11779.5,-17021.5,
17.397,1.2372825,-4.628415,7.082224,2.8302178,0.5300546,-0.48449056,29568.0,31740.5,-11901.5,
17.518,0.10961348,-1.0299296,7.738235,3.4921104,0.6939291,-0.43319656,22656.0,-17923.5,-15742.5,
17.634,-1.2838118,3.1144336,7.51318036,2.9892958,0.45331348,-0.47316592,17536.0,508.5,24193.5,
17.752,-3.053127,7.43596736,7.6975336,1.3542819,-0.19445684,-0.59640484,14208.0,-26115.5,-7807.5,
17.870,-3.2350864,8.003393,8.734223,-0.5374684,-0.9353558,-0.7240404,9856.0,-32259.5,-22655.5,
17.984,-1.8464494,5.3937136,9.814008,-1.971836,-1.4609531,-0.8242303,8576.0,-22531.5,-5759.5,
18.101,0.904488464,0.9452868,10.067793,-2.6533136,-1.6273588,-0.87778932,11648.0,3324.5,24449.5,
18.224,1.2420709,-1.3699062,9.071805,-2.282398,-1.223535,-0.8314248,22912.0,-21507.5,-16766.5,
18.339,3.274748,-3.4049776,8.906606,-1.278234,-0.27679378,-0.77799908,32128.0,9212.5,-11389.5,
18.454,3.5836,-3.431314,9.095747,-0.26221264,0.7516182,-0.7069868,29568.0,24828.5,-12413.5,
18.570,2.896464,-2.6316504,9.632049,0.6228425,1.5863118,-0.6391721,17024.0,28156.5,-12157.5,
18.684,1.2061579,-1.3268106,9.655991,1.210259,2.0630132,-0.5974707,-3712.0,18939.5,-14461.5,
18.805,-0.9989019,0.174353868,8.913788,1.375066,2.0077224,-0.58441408,-30080.0,2299.5,-26237.5,
18.921,-3.83124268,1.1033042,8.085394,1.0800921,1.2837437,-0.62025324,16768.0,-9732.5,19841.5,
19.039,-4.855961,2.1160514,8.188345,0.6969191,0.012584504,-0.5929408,8064.0,-14084.5,3457.5,
19.154,-4.858355,2.2309732,9.038286,0.32240604,-1.3155978,-0.5985366,9344.0,-12804.5,4225.5,
19.269,-2.8352546,1.8838138,9.696692,-0.008407116,-2.1877296,-0.5998689,20352.0,-7172.5,20097.5,
19.391,0.82308552,1.3020229,9.59853,-0.29378844,-2.367192,-0.60626392,-23168.0,-260.5,-23934.5,
19.506,1.5437403,0.56221456,8.839568,-0.473517416,-1.7621888,-0.61758864,896.0,9212.5,-13437.5,
19.625,5.8054196,1.019507,8.303267,-0.38505184,-0.31862836,-0.6093283,16256.0,19708.5,-10109.5,
19.741,5.0584284,0.353919,8.588177,-0.382387232,1.1972766,-0.65769124,15488.0,29180.5,-10109.5,
19.857,2.6187368,0.028307564,9.0598344,-0.4825771,2.2645922,-0.6859363,-3456.0,-29700.5,-12669.5,
19.974,-0.9797483,-0.7809326,8.760559,-0.440342768,2.3053608,-0.6756774,-31360.0,-21252.5,-24701.5,
20.094,2.2667892,-1.0490832,3.500498,0.02183637,1.5867115,-0.7416269,11904.0,-13572.5,19842.5,
20.210,-5.8280068,-2.018735,7.35276836,0.5239849,-0.2791919,-0.54004808,4992.0,-12548.5,9090.5,
20.326,-4.9493348,-1.4752512,7.654438,0.960184,-1.73834052,-0.480360416,14208.0,-15876.5,18818.5,
20.444,-2.2127624,-0.3523705,8.557052,1.2520936,-2.631256,-0.428000536,-29568.0,-24068.5,-26749.5,
20.560,0.8613928,1.2110431,9.198698,1.1684244,-2.4314094,-0.43492856,3712.0,27132.5,-12413.5,
20.682,1.5988068,6.79671536,9.86668,0.413136536,-1.0412747,-0.463839736,-29568.0,12284.5,-13693.5,
20.807,8.168496,5.1135916,11.00632,-0.6308635,0.7436243,-0.67194696,-17792.0,11004.5,-14205.5,
20.922,5.5851524,4.1606992,9.948083,-1.735084,2.2319506,-0.788790768,-31104.0,22268.5,-10877.5,
21.039,1.6323256,0.89500856,8.437342,-2.557787,3.0148172,-0.8548734,4224.0,-14851.5,-14461.5,
21.155,0.91645944,-2.590949,7.860339,-2.9453566,1.2932031,-0.77973108,-27520.0,26107.5,20611.5,
21.277,-1.5950582,-6.280414,7.63528436,-1.82461552,-0.82077692,-0.5730894,-29568.0,-9988.5,-16764.5,
21.395,-0.9893251,-8.995439,8.600147,0.1089696,-1.3461077,-0.397357336,-19328.0,1275.5,30852.5,
21.511,0.7488653,-8.389706,8.650426,2.017907,-1.3415779,-0.23721344,-8832.0,-1540.5,-22140.5,
21.625,2.180598,-4.61405,7.9273768,3.3101166,-1.0450052,-0.1339592,1408.0,-21507.5,10627.5,
21.740,2.2715776,-0.6516457,6.325656,3.4222972,-0.53712756,-0.1566085,12672.0,2300.5,-24444.5,
21.855,1.8932936,1.6755183,4.649715,1.92651016,-0.33128536,-0.358187384,23936.0,23548.5,-11389.5,
21.980,1.8190734,3.3131524,4.7023872,0.5427705,0.26012814,-0.5317877,30848.0,-2307.5,-13694.5,
22.097,2.0704646,4.131969,6.3065024,-0.60248524,0.9164252,-0.6519623,25472.0,-5379.5,-13694.5,
22.213,0.89251748,3.79199268,9.670356,-1.7329524,1.338102,-0.76054576,7296.0,8444.5,-10621.5,
22.329,-1.6573074,1.6635473,11.784436,-2.3720628,0.9922338,-0.792521236,-13696.0,-29956.5,-14717.5,
22.448,-4.8727204,-3.05303,12.450024,-2.0505758,0.17086322,-0.7414937,-23936.0,4347.5,-29308.5,
22.569,-4.3196596,-4.894171,12.047798,-0.7146659,-0.82890403,-0.5764202,-17024.0,27387.5,20355.5,
22.686,-1.6453364,-5.3730116,11.070964,0.8073678,-1.4621521,-0.45531296,384.0,-29187.5,19075.5,
22.803,1.2013695,-2.3347696,10.101312,1.9194488,-1.3347831,-0.3488612,17024.0,27900.5,30339.5,
22.920,3.073635,0.883037536,8.478044,2.2198854,-0.4706452,-0.3267448,31872.0,3836.5,-21884.5,
23.035,-0.15853715,4.6850296,7.22108736,1.544403,0.6355738,-0.3468627,-28800.0,-26883.5,-14973.5,
23.158,2.2141168,4.572502,7.321644,0.251527,1.5085048,-0.5372502,28032.0,14076.5,-12157.5,
23.272,0.6554915,4.3594184,8.449313,-1.0802525,1.80427816,-0.64570048,8064.0,12796.5,-11133.5,
23.389,-2.4426056,3.4903232,9.2106696,-2.1694178,1.4039183,-0.73829616,-13952.0,32251.5,-15997.5,
23.507,-4.915816,0.36589,9.766124,-2.500764,0.28744054,-0.7247066,-27776.0,4091.5,-31612.5,
23.620,-5.0474972,-2.8854358,9.457272,-1.9300012,-1.0078336,-0.6566254,-25728.0,-30980.5,14723.5,
23.735,-2.2247334,-7.384141,9.524309,-0.5982218,-1.9953434,-0.52219504,-11392.0,-8964.5,-1916.5,
23.856,-0.1130473,-5.0402176,9.809219,0.963648,-2.2916498,-0.3484615,8576.0,-6915.5,-2428.5,
23.970,2.7240818,-3.1871052,9.078988,2.045086,-1.8293374,-0.25919658,31872.0,-18179.5,9859.5,
24.085,5.604306,-0.71389496,7.7430232,2.5505652,-0.8046559,-0.25586578,-14976.0,23036.5,24963.5,
24.200,4.546069,1.98437036,7.252212,2.2757092,0.4410562,-0.26825628,-7040.0,-11011.5,-28541.5,
24.316,3.58120568,3.9404332,6.6776036,1.3143126,1.4361603,-0.37270956,-12160.0,23036.5,-19581.5,
24.441,1.8932936,5.0034584,7.11334836,-0.13044696,2.0238432,-0.5079393,-32384.0,4860.5,-13181.5,
24.558,-0.51527316,4.1846412,8.068635,-1.3936123,2.0043916,-0.6142578,2944.0,10236.5,-11389.5,
24.675,-3.1776254,2.147176,8.640849,-2.0964072,1.3186502,-0.64077084,-22144.0,-32516.5,-18557.5,
24.791,-4.832019,-1.331599,8.600147,-1.93932752,0.0296381,-0.5761537,31872.0,-2564.5,32130.5,
24.905,-4.7530104,-3.910154,9.361504,-1.0128375,-1.2432532,-0.4755641,-29568.0,21755.5,20099.5,
25.026,-1.5399916,-4.3961772,10.043851,0.21395582,-1.9308596,-0.342998968,-11392.0,30459.5,19587.5,
25.145,2.0656762,-3.0195112,10.161167,1.2870002,-1.7336774,-0.25106946,11904.0,25084.5,27011.5,
25.263,4.2013044,0.06422059,9.538674,1.75251016,-0.9068443,-0.21936042,32128.0,8188.5,-27772.5,
25.380,4.3928404,2.4344804,8.762954,1.3401594,0.23588006,-0.26399288,-21632.0,-15363.5,-20093.5,
25.497,3.3848812,3.701013,8.466072,0.16679194,0.928949,-0.37630684,-25216.0,-30979.5,-15229.5,
25.612,2.6259194,3.4544104,8.995191,-1.3413857,0.27291834,-0.439858136,30080.0,-29443.5,-12413.5,
25.736,1.9411778,1.2349851,9.979208,-2.2448266,-0.60081216,-0.41894084,28800.0,-5123.5,-18557.5,
25.853,2.8294266,-2.1121088,10.508327,-2.0064762,-0.8143818,-0.34752888,-27008.0,24572.5,30851.5,
25.970,3.655426,-4.930084,10.24257,-0.69494768,-1.1076238,-0.17286274,-16256.0,-20483.5,8835.5,
26.085,4.9746312,-5.3778,8.451707,0.8067016,-1.6077738,0.023386892,-4224.0,-16643.5,-4988.5,
26.199,7.297007,-4.259708,2.2483306,2.0954472,-1.5929852,0.16954156,8832.0,-25858.5,-4732.5,
26.321,5.9155524,-1.975639,0.59872556,2.1780508,-0.9666651,0.13170388,23168.0,19453.5,5251.5,
26.439,7.170114,0.69150148,4.992086,1.6540522,0.50154316,0.042039268,29824.0,-1282.5,10114.5,
26.554,8.934641,3.2820278,9.055046,0.6625454,2.4407236,-0.061747868,20608.0,-19970.5,25218.5,
26.669,7.680079,4.227737,11.801195,-0.4490028,3.661655,-0.12703118,-12160.0,-25859.5,-18045.5,
26.784,-1.1162178,2.8774076,11.671908,-1.0719922,4.089727,-0.15407713,3456.0,-18179.5,-14205.5,
26.902,-8.377831,1.3092055,8.853933,-1.0693276,3.2098676,-0.088527348,23168.0,-6660.5,24706.5,
27.024,-8.313189,0.01873076,5.825268,-0.7583658,0.5629628,0.025918282,-128.0,-517.5,-11901.5,
27.138,-4.34839,-1.3268106,4.3719872,-0.374793,-1.3966024,0.1475584,384.0,1275.5,-19068.5,
27.252,-0.9893251,-1.0658426,4.711964,0.32387158,-2.3313528,0.2669336,9600.0,2811.5,-1148.5,
27.367,-3.3212776,1.4480691,4.7790016,0.72409824,-2.875336,0.31742824,26240.0,-2308.5,26242.5,
27.483,-0.34049648,0.59812752,7.44374836,0.58647036,-2.969797,0.32901936,-10112.0,-10756.5,-19837.5,
27.607,4.0025852,0.4808117,5.6073956,0.18424524,-1.9869502,0.3884405,27776.0,-17667.5,-14717.5,
27.723,8.055969,-0.431379136,9.904987,0.12495734,-0.5635074,0.22203466,-13184.0,-19459.5,-20861.5,
27.840,7.34967936,-1.2430136,9.08617,0.29655918,1.255099,0.1948555,-9600.0,-20483.5,-21885.5,
27.955,3.9451246,-0.196747384,8.825203,0.63643208,2.8570714,0.19352318,-30080.0,-25091.5,-14461.5,
28.075,-0.33091962,1.3115997,8.9161824,0.5193218,3.3087254,0.16354614,-6016.0,29179.5,-13437.5,
28.198,-4.336419,0.8112115,8.750982,0.13148567,2.3369364,0.15195504,19840.0,19707.5,30594.5,
28.314,-8.861461,2.2716746,9.05744,-0.28206408,0.44412048,0.17127356,2432.0,13563.5,8322.5,
28.430,-7.815194,1.77607484,9.069411,-0.776751636,-1.698904,0.19378964,3712.0,12283.5,6786.5,
28.547,-2.528797,0.703472436,9.272919,-1.1131605,-3.0118978,0.1940561,22912.0,19963.5,30338.5,
28.663,4.0792,-7.3075268,8.509168,-1.0346874,-2.822976,0.1684757,-8832.0,-30212.5,-16765.5,
28.776,3.8493564,-1.0371122,6.715911,-0.50509316,-1.3441093,0.26759976,20864.0,-14339.5,-14205.5,
28.899,6.538045,-1.697912,9.040681,0.069000216,0.5115355,0.222834052,30592.0,-3843.5,-16765.5,
29.014,4.886046,-1.7266424,9.062228,0.487746,1.86889532,0.22456606,20352.0,-3075.5,-15485.5,
29.130,1.5269809,-0.84318184,8.885057,0.79071384,2.6183212,0.21937004,-5760.0,-10756.5,-15741.5,
29.247,-1.9086986,0.26054512,8.382276,0.9356694,2.4784282,0.23655688,28544.0,-24580.5,-28541.5,
29.363,-4.894268,2.6427758,8.138066,0.73582252,1.3107897,0.2536105,3712.0,23035.5,12418.5,
29.484,-6.613305,2.5350368,8.32242,0.10324065,-0.40043236,0.21617248,-3200.0,11770.5,642.5,
29.600,-5.7992764,2.8989554,9.304043,-0.56171644,-1.96363436,0.1957881,2432.0,7163.5,8322.5,
29.717,-2.2845884,1.9676108,10.252147,-1.1140932,-2.919169,0.16754308,24960.0,13563.5,-32637.5,
29.834,2.20454,0.6364348,10.16835,-1.386551,-2.7126606,0.1245094,-7808.0,28411.5,-14461.5,
29.947,3.595571,-0.172805368,10.594518,-1.2437272,-1.4990572,0.1351679,22656.0,-16643.5,-13949.5,
30.064,7.380804,-2.4640562,9.019133,-0.57810384,0.28504238,0.124775864,-29568.0,764.5,-24188.5,
30.187,6.0113208,-2.6891112,8.33918,0.25126056,2.1324268,0.16407907,25216.0,10492.5,-24188.5,
30.304,1.9699082,-1.6212974,8.990402,0.93193896,3.3997224,0.19285702,-3968.0,5115.5,-22652.5,
30.421,-2.363597,-0.40025456,8.480437,1.276475,3.2102676,0.212442016,24192.0,-9988.5,28034.5,
30.537,-6.85990768,1.6372111,7.77893636,1.2399696,1.76937152,0.189792708,-1920.0,-27653.5,898.5,
30.659,-8.349101,3.382584,6.9577256,0.53704152,-0.4646498,0.229895316,-11136.0,20474.5,-18557.5,
30.782,-5.6939316,3.3849784,6.694363,-0.449802216,-2.3554676,0.17766864,-2688.0,13050.5,-4989.5,
30.900,-0.8552498,1.87184284,7.5730352,-1.1828406,-3.2643712,0.120645692,19328.0,19451.5,25474.5,
31.018,1.1870042,6.672217,7.877099,-1.5498926,-2.7431704,0.17886774,-7808.0,-26628.5,-15485.5,
31.135,6.030474,-1.7074888,9.26813,-1.0738573,-1.0947004,0.058293476,20608.0,-6659.5,-16765.5,
31.251,7.0432216,-3.0745778,10.410164,-0.3862509,0.5392476,0.08347418,28288.0,6140.5,-24700.5,
31.371,3.98822032,-2.5813722,10.017515,0.387955768,1.87902092,0.113717672,14464.0,11004.5,-26748.5,
31.494,0.121584472,-1.1376686,8.789289,0.934470336,2.392361,0.15395351,-10624.0,7163.5,-27260.5,
31.613,-2.0619276,-0.1847764,7.383893,1.1505714,1.9894696,0.17766864,26752.0,-7428.5,30850.5,
31.730,-3.50084268,0.6460116,6.155668,1.1156648,0.8252951,0.1812659,10112.0,-25092.5,17794.5,
31.845,-3.51520768,1.3762431,6.6895748,0.864657136,-0.36379372,0.18446346,5760.0,23547.5,11906.5,
31.964,-3.1512892,2.1567528,7.668803,0.38609058,-1.3839454,0.15155534,12672.0,12027.5,19074.5,
32.088,-1.5998466,2.5829208,8.801261,-0.2502218,-2.049702,0.10212655,32640.0,7931.5,-28797.5,
32.210,0.7440769,1.2278025,9.189121,-0.9631422,-2.118316,0.005267442,-9088.0,13051.5,-15229.5,
32.324,3.157432,-1.4082134,8.300873,-2.088813,-1.6160342,-0.21602966,17280.0,30716.5,-11133.5,
32.440,4.1773624,-4.915719,5.913853,-2.866617,-0.6864798,-0.5523053,-29312.0,-2563.5,-21117.5,
32.554,4.699298,-6.5796896,3.881176,-2.4757166,0.46517104,-0.6487647,-20864.0,-32003.5,17027.5,
32.675,5.894005,-8.179015,4.5228224,-1.1311469,1.5055738,-0.57508784,-20864.0,-7171.5,-11388.5,
32.791,5.470231,-7.20697,4.508457,0.3354627,2.3991556,-0.47822872,-25984.0,252.5,-18555.5,
32.906,3.571629,-6.340269,6.1029952,1.7803554,3.0506566,-0.36578156,26240.0,-4867.5,-7548.5,
33.022,0.349033632,-4.451244,8.518744,2.8553982,2.5991356,-0.28331144,3200.0,-24579.5,17027.5,
33.139,-4.966094,-0.172805368,9.936112,3.1643616,1.5018433,-0.25573256,-19584.0,6395.5,-31868.5,
33.261,-12.6682416,6.5596896,9.715846,2.6756694,0.27664882,-0.1740618,32128.0,29435.5,-27517.5,
33.379,-7.276499,6.77037936,8.829991,1.0467843,-1.635486,-0.33260696,-29568.0,763.5,-26493.5,
33.495,-1.8584204,5.697777,7.5395165,-0.57663832,-2.6645642,-0.4780955,-8576.0,-6148.5,-18302.5,
33.613,1.1678506,3.2054134,6.802102,-1.993819,-2.448463,-0.6548934,23936.0,9212.5,-11133.5,
33.728,2.5660644,0.6412232,7.381499,-2.5683124,-1.324924,-0.7513528,-11392.0,-23299.5,-17021.5,
33.842,7.10307636,-2.495181,8.334392,-1.93386516,-0.11251964,-0.82876016,5504.0,8189.5,31363.5,
33.966,5.056034,-5.049794,10.096523,-0.80686192,1.0564512,-0.6121262,9088.0,26365.5,16771.5,
34.081,2.882099,-4.4943396,10.606488,0.33719468,1.8792874,-0.53764988,384.0,30461.5,20611.5,
34.198,-0.52963836,-2.255761,9.938506,1.1952038,2.165468,-0.46477236,-17280.0,22012.5,-31356.5,
34.313,0.68422184,-0.26857344,7.55867,1.4864473,1.79215408,-0.5280572,24704.0,3324.5,-17020.5,
34.430,-5.9309572,1.6252401,8.334392,1.2435668,0.232016368,-0.4146774,7296.0,-20227.5,-11901.5,
34.552,-5.6580184,2.3267412,9.390234,0.763135,-1.3262563,-0.42120576,10880.0,29180.5,-9853.5,
34.668,-3.1465008,2.3650484,10.21384,0.3226725,-2.3306866,-0.42680144,32384.0,17660.5,-9597.5,
34.784,0.40649448,1.78086332,10.1108888,-0.112194284,-2.5276022,-0.470101632,1664.0,11005.5,-20093.5,
34.906,4.208487,1.3930025,8.69831,-0.5695771,-1.7970954,-0.405218,31104.0,11005.5,27010.5,
35.020,5.185321,1.1679475,9.047863,-0.7446429,-0.337014268,-0.5841476,-18816.0,13565.5,10626.5,
35.142,4.5149444,0.7513565,9.474031,-0.8461651,1.1213348,-0.6297127,-18816.0,16381.5,10370.5,
35.257,2.2500298,-0.4744748,10.450866,-0.69095075,2.0253088,-0.6313114,-32640.0,19965.5,25218.5,
35.374,-1.4202814,-2.2030884,10.855486,-0.28859246,2.1378892,-0.59893624,7808.0,23805.5,-22141.5,
35.492,-4.22868,-2.7417838,10.268907,0.28390224,1.4212383,-0.5243268,-22144.0,25084.5,-10877.5,
35.608,-6.3499428,-0.11534454,9.004767,0.88330952,0.17539308,-0.4687693,28288.0,17660.5,-9853.5,
35.724,-4.4130336,-0.22068942,8.813231,1.2696802,-1.1771705,-0.3629837,28800.0,764.5,-12157.5,
35.847,-2.9382052,0.58855076,8.942518,1.262752,-2.1784032,-0.33140788,-17024.0,-21507.5,-20606.5,
35.963,0.049758436,1.76410384,8.882664,0.9356694,-2.3129668,-0.35498984,8576.0,25853.5,24193.5,
36.079,3.0903944,2.9133208,8.4708608,0.4195316,-1.70370032,-0.42200512,30336.0,13309.5,129.5,
36.197,5.2834836,2.9731758,8.020751,-0.34721416,-0.4164201,-0.5341859,-24448.0,6909.5,-16766.5,
36.313,5.7168336,2.4991238,7.297702,-1.0596017,0.984639632,-0.6378398,-27264.0,7165.5,-13182.5,
36.436,3.535716,1.5390489,6.919418,-1.707372,2.2175616,-0.72683824,19584.0,15613.5,11649.5,
36.551,0.6291552,0.7489623,6.122149,-2.1059996,2.6664176,-0.7690726,-12928.0,-29699.5,-25726.5,
36.666,-1.8488436,-0.25899664,5.6313376,-2.2099202,2.2055708,-0.753084836,14208.0,508.5,-11133.5,
36.785,-4.4465524,-2.282097,6.5315576,-1.566813,0.886315,-0.6519623,-13696.0,32763.5,-16253.5,
36.899,-7.04905,-4.463215,8.60733,-0.388116184,-0.630123,-0.5022104,-21120.0,-12036.5,-25725.5,
37.012,-6.1560124,-6.493498,10.185109,0.9784367,-2.031316,-0.32954264,-11136.0,-7684.5,-23421.5,
37.134,-1.8703914,-4.52307,10.750141,2.2823708,-2.8428276,-0.19724406,19840.0,-26883.5,-11901.5,
37.250,2.669015,-0.4625038,9.684721,2.824622,-2.4439332,-0.13142781,-6528.0,3068.5,-19837.5,
37.364,13.418981,2.4201152,8.044693,2.4694274,-0.9982409,-0.26892244,22656.0,30717.5,17025.5,
37.481,4.9387184,4.129575,6.5938068,1.2483631,0.287707,-0.342998968,32128.0,6141.5,-9598.5,
37.597,3.37769868,5.755238,6.82365,-0.10846378,1.2961342,-0.5020771,26240.0,-7170.5,-17535.5,
37.719,0.5956364,5.3194932,7.11574268,-1.5165849,1.8513087,-0.65729152,7808.0,-6146.5,-2175.5,
37.837,-1.6980088,2.8534656,7.692745,-2.4905052,1.6775754,-0.7334998,-18048.0,10236.5,25729.5,
37.954,-3.6157646,-0.5463008,8.1045468,-2.66224,0.843681,-0.7189776,23168.0,-20995.5,-16766.5,
38.068,-4.0515092,-4.930084,8.267354,-1.82048516,-0.22190248,-0.6035993,10624.0,20476.5,-10365.5,
38.184,-2.2630406,-5.660316,9.790066,-0.25208706,-0.9013818,-0.4116131,13696.0,-18691.5,-11389.5,
38.305,0.68901024,-5.710594,10.620854,1.421697,-0.95800516,-0.25306794,25984.0,-20739.5,-12669.5,
38.421,2.7432354,-2.9548676,10.719016,2.5241854,-0.46997904,-0.15021342,-27264.0,20220.5,-12413.5,
38.539,2.8677336,1.1775243,9.845133,2.7280292,0.31488616,-0.15047988,-20352.0,-22275.5,-21886.5,
38.656,1.69457508,2.822341,8.365516,1.9090568,0.9543962,-0.25160238,-23424.0,8444.5,24449.5,
38.772,-0.55118624,5.5134236,7.6616208,0.41380264,0.98517256,-0.400288436,32128.0,-12035.5,8064.5,
38.891,-2.9022922,5.046554,7.534728,-0.9837931,0.39615726,-0.5111369,21376.0,-13827.5,4736.5,
39.013,-3.5559096,3.0019062,8.420583,-1.9565144,-0.5653726,-0.5684263,14208.0,508.5,20353.5,
39.129,-2.5216144,0.011548154,9.325591,-2.206989,-1.3101354,-0.56522876,15232.0,30204.5,-23934.5,
39.245,-0.44344716,-2.8902242,9.665567,-1.6253015,-1.5711353,-0.48182596,29312.0,-3.5,-11646.5,
39.363,2.513392,-4.6667224,9.770912,-0.21797986,-1.1368014,-0.34912764,-17792.0,20220.5,-13181.5,
39.479,4.194122,-4.5757424,10.592123,1.1921395,-0.15355484,-0.22948602,-4224.0,18172.5,-16253.5,
39.602,4.258765,-1.94451452,11.439671,2.125158,1.08403,-0.17099748,-4736.0,-5379.5,-20862.5,
39.718,2.4367776,1.732979,11.205039,2.1707232,1.938442,-0.19031602,-18048.0,28412.5,-28542.5,
39.834,-1.8201132,10.919532,12.675079,1.4284918,2.217162,-0.356721832,27008.0,2300.5,21633.5,
39.952,-4.2574104,4.42885,9.299254,0.349318752,1.446419,-0.34166668,7040.0,-12803.5,1664.5,
40.067,-4.915816,3.1623178,8.142855,-0.5321391,0.32887548,-0.392561032,-6528.0,-12804.5,-7295.5,
40.205,-3.37634432,1.5605967,7.1348963,-1.2097533,-1.0270189,-0.41187956,-11904.0,-2820.5,3968.5,
40.326,-1.8033538,0.892614336,6.940966,-1.4934026,-1.77391332,-0.41880756,-6784.0,13051.5,23425.5,
40.445,-0.36922688,0.25815094,6.9936384,-1.5211146,-1.9865503,-0.40281984,9600.0,-28419.5,-21630.5,
40.564,1.1199665,-0.560666,6.9242068,-1.225741,-1.7179562,-0.366714168,30336.0,-5379.5,-11902.5,
40.680,2.9730788,-2.4329316,7.939348,-0.6268665,-1.0014385,-0.30103116,-13696.0,12796.5,-15229.5,
40.797,3.736829,-2.9045894,8.961672,0.24113498,-0.026851944,-0.2392119,-3200.0,17148.5,-18813.5,
40.918,3.60993632,-2.6699576,9.907382,1.1176633,1.0600485,-0.1684661,-4480.0,10748.5,-17789.5,
41.036,1.7927372,-0.9485267,10.331156,1.6139496,1.823197,-0.13928846,-20352.0,-8963.5,-16766.5,
41.152,-1.1042468,1.5941155,10.237782,1.5290814,1.9261848,-0.15301128,23424.0,32508.5,-23166.5,
41.270,-3.9772888,3.533419,9.720634,0.87118552,1.2309841,-0.1876514,3456.0,13052.5,27009.5,
41.385,-5.066651,4.227737,9.976813,-0.04517895,0.092390016,-0.23295002,-8064.0,5115.5,13697.5,
41.505,-3.481689,2.750515,10.244965,-0.8536261,-0.86021336,-0.26639108,-9856.0,8955.5,16513.5,
41.620,-0.39316888,0.79205792,9.878652,-1.2685082,-1.2368581,-0.28744158,-3200.0,20987.5,30337.5,
41.737,3.58599432,-3.991557,10.249753,-1.1423383,-0.87753348,-0.3932272,7040.0,-25347.5,-21118.5,
41.855,1.67781568,-1.86790016,9.031104,-0.63206256,-0.029250108,-0.204705,14464.0,-8963.5,-13438.5,
41.972,0.35142782,-2.2964624,9.143632,-0.045445412,1.1449168,-0.09478922,10880.0,-259.5,-12670.5,
42.096,-2.2462812,-1.89663052,8.686339,0.34092516,2.0379658,0.04030726,-8320.0,-1028.5,-17790.5,
42.213,-5.564645,-0.7593848,7.556276,0.590867,1.69822608,0.14915718,-30336.0,-8708.5,-32382.5,
42.328,-6.95567536,-0.6779819,5.782172,0.52078736,0.7012568,0.21817096,21120.0,-17412.5,16769.5,
42.444,-7.0538384,-0.0914025136,4.94899,0.2757751,-0.44533128,0.2831878,18048.0,-25604.5,9345.5,
42.560,-6.1943196,0.29885236,7.628102,0.044885368,-1.7378076,0.331684,24960.0,-30724.5,12673.5,
42.680,-4.0754516,0.7393855,10.412559,-0.272205,-1.9631016,0.33008522,-20352.0,32763.5,29569.5,
42.796,0.042575836,-0.22787202,12.100471,-0.25261998,-1.75646,0.35233484,2432.0,-30211.5,-25470.5,
42.912,2.525363,-1.082602,11.2409528,-0.020797626,-1.2977448,0.39070544,23936.0,-27907.5,-21630.5,
43.030,3.2675656,-1.93254352,9.167574,0.4344535,0.0053900144,0.45065948,-25216.0,-27395.5,-22142.5,
43.147,1.637114,-0.206324184,7.996809,0.96591292,1.0099535,0.51954,-23680.0,31228.5,-25214.5,
43.262,0.24847716,1.7904401,7.046311,0.6911901,1.1255982,0.49822304,-31872.0,18172.5,-32638.5,
43.386,-0.61822384,3.0426076,6.962514,-0.381054936,0.89670708,0.3804466,24960.0,12540.5,29825.5,
43.502,-1.8105364,2.9133208,8.930548,-1.3776245,0.3965569,0.29224752,18816.0,20220.5,-31358.5,
43.618,-2.7849764,1.886208,9.732605,-1.7781178,0.112774392,0.27186316,13696.0,-22787.5,-20606.5,
43.742,-2.816101,-1.142457,10.230599,-1.578937,-0.4618519,0.3095676,13184.0,2044.5,-11645.5,
43.856,-1.5471742,-5.985927,9.069411,-0.80113304,-1.1531888,0.27679272,19584.0,23292.5,-9597.5,
43.978,0.67225084,-4.139998,9.557828,0.3601105,-1.4409683,0.5111464,-29056.0,32764.5,-11133.5,
44.093,2.2308762,-3.373853,10.314396,1.4395499,-1.0565963,0.6078723,-12416.0,24060.5,-16253.5,
44.210,3.22447,-1.3818772,11.1691268,2.0822576,-0.3298198,0.6465094,1664.0,3325.5,-23421.5,
44.325,3.1239132,1.6491821,11.200251,2.0132436,0.40761512,0.6077391,9344.0,-21250.5,32385.5,
44.442,2.6522556,4.021836,10.474808,1.1349834,1.0647116,0.4839673,8576.0,25853.5,22401.5,
44.558,0.7440769,3.75847384,9.840344,-0.015201926,1.3426319,0.37884784,-640.0,16636.5,20609.5,
44.681,-1.5735104,3.3394884,8.657609,-1.0710596,1.015416,0.2673333,-13696.0,19964.5,29313.5,
44.796,-2.4952782,1.254139,7.711899,-1.6887196,0.24254162,0.22416636,-24960.0,-29955.5,-24702.5,
44.912,-2.435423,-0.9006427,8.085394,-1.6194394,-0.7069974,0.25600864,-27520.0,-6403.5,-16510.5,
45.027,-1.391551,-2.9285314,9.502762,-0.9372954,-1.2619057,0.33208368,-17792.0,16636.5,-13693.5,
45.142,0.928430464,-4.295621,11.226587,0.027831778,-1.2876192,0.4216151,-1920.0,28924.5,-21373.5,
45.265,2.786331,-3.397795,11.870627,0.95005848,-0.915770736,0.480636536,15744.0,28157.5,-30589.5,
45.383,3.6338782,-0.998805,10.862668,1.5033677,-0.218172,0.5144772,27008.0,16893.5,26754.5,
45.499,2.714505,1.4528575,8.801261,1.4824504,0.6574237,0.49395964,30848.0,2557.5,24194.5,
45.614,1.0577173,2.501518,7.12531936,0.8678548,1.3349046,0.40629348,24192.0,-12290.5,27265.5,
45.731,1.6155662,2.9061382,7.02715736,0.027565316,1.3853991,0.3287529,10880.0,-18946.5,-31102.5,
45.855,-1.5399916,2.6810832,7.8890696,-0.7878099,0.9586595,0.244950432,-6272.0,-14851.5,-21118.5,
45.972,-2.315713,1.6060865,9.124477,-1.20962,0.44145584,0.22336698,-17280.0,-1283.5,-14462.5,
46.087,-2.3300782,-0.3427937,9.914564,-1.2064224,-0.08653954,0.24175288,-23168.0,16892.5,-12413.5,
46.202,-1.6237886,-2.0043698,9.98639,-0.844832832,-0.54139096,0.28585244,-22912.0,-30467.5,-13181.5,
46.319,-0.225574784,-2.8734648,9.426147,-0.19826164,-0.825839636,0.35420008,-14976.0,-17667.5,-16509.5,
46.444,0.904488464,-1.7625554,8.894634,0.54663424,-0.71672328,0.4140209,-6272.0,-14851.5,-20861.5,
46.561,1.8214676,-0.701923936,8.949701,0.93393748,-0.22576616,0.43587084,1152.0,-22018.5,-22653.5,
46.678,1.9052648,0.878249136,9.270524,0.9548547,0.3287422,0.41561968,2432.0,-32258.5,-21885.5,
46.794,1.4551549,2.7002368,8.875481,0.53038,0.6855355,0.35673148,-2176.0,21500.5,-18557.5,
46.908,0.49507992,6.1454924,9.246582,-0.33135962,0.88111896,0.21430726,-10880.0,17148.5,-14717.5,
47.025,-0.9701715,2.8989554,8.712675,-1.1824409,0.7020562,0.1833976,-22400.0,24828.5,-11389.5,
47.146,-1.82969,0.79205792,9.397417,-1.5073919,0.2902384,0.16354614,32640.0,-20227.5,-10877.5,
47.261,-2.3947216,-2.1552044,10.067793,-1.0803857,-0.26919956,0.21870388,28032.0,764.5,-17532.5,
47.379,-1.805748,-5.056977,10.455654,0.116697008,-0.911907,0.3692552,31360.0,13308.5,-23420.5,
47.496,-1.1114294,-4.73376,11.090117,1.4641978,-1.1983542,0.4738417,-23680.0,8956.5,-24444.5,
47.612,0.4639553,-2.0833784,11.566564,2.193772,-1.2027509,0.53033176,-10368.0,-12035.5,-20861.5,
47.735,2.2308762,2.6308048,10.987166,2.0282988,-0.8723374,0.49222764,6784.0,22269.5,-24445.5,
47.851,3.3657276,6.1933764,9.349533,1.0104122,-0.18899436,0.383777368,18304.0,-258.5,-32638.5,
47.969,3.3298146,6.528565,7.300096,-0.701342768,0.5363165,0.20631338,21120.0,-7426.5,30081.5,
48.086,2.5445166,4.546166,6.301714,-2.1695512,1.13639,0.04470389,13696.0,6909.5,-27005.5,
48.200,1.3138969,1.9628224,6.861957,-2.8634192,1.4236366,-0.020979112,-3456.0,-25603.5,-19069.5,
48.317,2.8174556,0.30364078,8.695916,-1.497666,-0.67089176,0.27679272,-20864.0,16380.5,-26236.5,
48.439,2.216511,-1.96366816,9.284889,-0.03158936,-1.86184568,0.5977468,-12160.0,-31235.5,26499.5,
48.555,5.446289,-2.7633316,11.063781,0.7779237,-0.87287024,0.6529045,-384.0,-28675.5,16771.5,
48.670,6.22201,-2.224636,11.777253,1.4588685,0.35392296,0.67049104,-128.0,31228.5,20099.5,
48.785,4.069623,-0.0052112564,10.968013,1.7398532,1.330641,0.65437008,-12928.0,14332.5,-30588.5,
48.902,0.66027988,2.441663,9.316014,1.4610002,1.8683624,0.6070729,31360.0,-8195.5,-15229.5,
49.023,-2.2726174,2.1639354,8.068635,0.464697,1.6068295,0.5353945,4480.0,-29955.5,-11133.5,
49.139,-4.535138,3.9595868,7.9537132,-0.54546224,0.6631527,0.43880188,-14976.0,28155.5,-14461.5,
49.255,-4.8727204,2.6739006,8.791684,-1.2450596,-0.4522593,0.41348796,-21376.0,-30724.5,-17021.5,
49.371,-3.8527904,0.33715956,9.270524,-1.5530901,-1.324391,0.4144206,-15744.0,-15108.5,-17789.5,
49.487,-2.413875,-1.94212032,9.179544,-1.2962204,-1.7503313,0.442798816,-896.0,3835.5,-22652.5,
49.612,-1.0755165,3.9212796,8.468467,-0.59369192,-1.5638076,0.60840524,18816.0,18940.5,-30076.5,
49.729,3.3130552,-2.2509724,7.474873,0.1653264,-0.5912195,0.5515155,-32128.0,23548.5,29315.5,
49.843,4.450301,-1.3124454,6.158062,0.7324918,0.75881268,0.58615568,-29568.0,22012.5,31875.5,
49.957,4.411994,-0.9509209,8.229047,1.1331182,2.0939228,0.57936084,21376.0,13052.5,-24956.5,
50.073,1.5796533,0.18153646,11.063781,1.2686143,2.7478218,0.5668371,-7296.0,-2564.5,-21117.5,
50.191,-3.3883152,-7.8031268,14.173849,1.031596,1.88848032,0.62425976,24704.0,-23556.5,31106.5,
50.314,-10.434451,5.6355276,10.546634,-0.08048524,0.08452937,0.49902244,5248.0,26107.5,14210.5,
50.430,-7.6763304,4.689818,8.784501,-1.2856951,-2.0972656,0.4575875,6272.0,23035.5,18562.5,
50.546,-1.7889886,2.1136572,8.583388,-2.1871376,-3.3056726,0.391504832,28288.0,-27908.5,-27773.5,
50.664,5.1302544,-12.076776,7.77893636,-2.2557516,-3.0213572,0.28851706,-384.0,2299.5,-21372.5,
50.782,5.7407756,-3.6372152,6.9960328,-1.5889293,-1.636152,0.370720736,32384.0,-30979.5,23683.5,
50.906,8.474955,-8.020998,6.6153544,-0.46112686,0.013117429,0.484366968,-22912.0,-15107.5,3971.5,
51.025,7.11265336,-5.291609,3.0671476,0.44031566,1.296534,0.4771725,-29312.0,-11011.5,-380.5,
51.143,6.3991816,-5.1766872,1.0847485,-0.07355721,1.5526043,0.31836088,19584.0,-14339.5,9091.5,
51.260,2.9587136,-4.2644964,6.110178,-0.54746076,0.7609444,0.216705416,4224.0,-13059.5,7043.5,
51.377,2.3410094,-5.863823,7.891464,0.29988996,0.66541756,0.26453544,-5248.0,-10500.5,-1148.5,
51.499,1.613172,-6.0266284,8.710281,1.390654,0.6586228,0.3211587,-14208.0,-17924.5,4739.5,
51.613,0.760836336,-3.883818,8.774924,2.1911076,0.5444436,0.35153544,-21632.0,31995.5,17283.5,
51.729,-0.55358048,-0.50799364,8.655214,2.4788868,0.28983872,0.3603287,-29824.0,507.5,-30844.5,
51.845,-1.3221192,1.1152752,9.083776,2.1235592,-0.0015380084,0.38457676,-31872.0,31227.5,-23933.5,
51.961,-2.7490636,5.2356964,9.6105,1.2202513,-0.310901,0.24548338,-30080.0,-260.5,-24958.5,
52.076,-3.065098,4.620386,8.631272,-0.239963016,-0.7548274,0.113451208,-23936.0,-16132.5,-26494.5,
52.199,-0.31894864,0.55982036,7.4700848,-0.9306337,-0.8384967,0.04563651,-13696.0,-9732.5,-19838.5,
52.315,1.2612245,-3.2493546,5.3105144,-0.64458624,-0.42174936,-0.04242934,-5248.0,3323.5,-14205.5,
52.432,1.886111,0.59333916,5.1908044,-0.60688184,0.29436856,0.081875408,-384.0,13051.5,-13181.5,
52.549,1.0840535,0.9452868,9.933718,-0.9670059,1.1387881,0.03657678,-7552.0,23291.5,-14205.5,
52.664,0.9763145,-0.16083437,13.666279,-1.1697838,1.1072123,0.009930537,-22400.0,-28164.5,-20605.5,
52.787,-3.0339734,-3.9053656,15.562487,-0.621937,0.6081282,0.035377704,29568.0,-13316.5,-31357.5,
52.903,-4.3890916,-3.4241312,13.73571,0.363974168,0.19884178,0.13210358,23168.0,-7428.5,26498.5,
53.021,-2.2175508,-0.8886717,10.256935,1.1392468,-0.5070173,0.237489484,23168.0,-15876.5,28290.5,
53.138,-0.55836884,1.0817564,7.63289,1.2041303,-1.1005626,0.23975442,30336.0,-32516.5,-27773.5,
53.255,0.35861044,2.3411064,7.450931,0.5358425,-1.097365,0.17806836,-22400.0,16123.5,-19581.5,
53.377,1.8885052,2.5182774,8.358334,-0.2454255,-0.67235732,0.0912015936,-8064.0,10235.5,-14973.5,
53.494,2.8533686,1.3618779,9.727817,-0.71426624,0.04149568,-0.025908668,-1152.0,15867.5,-14205.5,
53.610,2.8174556,0.26293932,10.043851,-0.92024168,0.86792904,0.0034022052,-4992.0,28155.5,-13949.5,
53.727,1.1056013,-0.81205732,10.489173,-0.80486344,1.3595524,0.011662542,-19328.0,-23300.5,-18813.5,
53.845,-1.5160496,-1.4369438,10.453259,-0.4130304,1.2644252,0.04523682,31104.0,-13316.5,-29309.5,
53.961,-4.8296248,-1.8343814,10.2713,0.082589808,0.53911436,0.095997912,18304.0,-10500.5,25730.5,
54.084,-3.7713876,-0.28772706,10.5562104,0.41406912,-0.33434964,0.15275441,14208.0,-16132.5,21378.5,
54.203,-2.174455,0.43532188,10.91534,0.46576284,-1.0454048,0.17287234,19840.0,-22532.5,27778.5,
54.319,0.0018743873,1.1176694,10.776477,0.31627738,-1.2252669,0.16394586,-32640.0,-30468.5,-27005.5,
54.439,3.212499,-0.491234168,9.567405,0.019038498,-0.87526848,0.06175749,-19840.0,31227.5,-20605.5,
54.555,2.9611078,1.124852,9.914564,-0.193065632,-0.030715652,0.09666407,-11904.0,31995.5,-15485.5,
54.677,2.1015892,0.71065508,9.916959,-0.3464148,0.7690715,0.074547688,-14464.0,-28676.5,-17533.5,
54.793,0.5525408,0.399408832,9.754153,-0.4539324,1.168099,0.05749409,-25472.0,-23300.5,-24189.5,
54.907,-1.2574756,0.195901692,9.751759,-0.47738104,1.0818984,0.05442977,27264.0,-17924.5,-32125.5,
55.024,-2.6772372,-0.079431508,9.426147,-0.4307502,0.51313424,0.066287348,15488.0,-13060.5,22658.5,
55.146,-3.2997298,-0.39067772,10.051034,-0.234900252,-0.36192852,0.1078555,12416.0,-11524.5,18306.5,
55.270,-2.7849764,-1.0442948,10.599306,0.031562252,-1.1446622,0.1475584,18816.0,-12292.5,22914.5,
55.386,-0.74032816,-0.82881668,10.800419,0.23633866,-1.4389698,0.16314645,31616.0,-13572.5,-32637.5,
55.504,2.384105,0.04506698,10.429317,0.2629849,-1.1713084,0.16341292,-17792.0,-17668.5,-22141.5,
55.620,3.6602144,1.3499069,9.08617,0.07486239,-0.23376004,0.12131185,-7040.0,-20484.5,-18557.5,
55.736,2.8150614,1.5222895,8.60733,-0.21331676,0.71231496,0.08627203,-7552.0,-18692.5,-17533.5,
55.858,0.95476664,0.7393855,7.7095048,-0.4284852,1.1665002,0.06175749,-19328.0,-13316.5,-21373.5,
55.974,0.05933523,-0.8934601,6.8667452,-0.39344544,1.316119,0.061491028,-32128.0,-7684.5,-30077.5,
56.089,-0.62780064,-1.86550584,5.801326,-0.064364252,1.2837437,0.07428122,18560.0,-4868.5,24962.5,
56.206,-0.8911628,-3.7976268,4.137356,-0.038117692,0.7907882,0.020722266,7040.0,-7428.5,11906.5,
56.321,-1.8632088,-4.7385484,1.9825742,-3.2407304,-1.4537586,-0.5256591,4992.0,-3844.5,3970.5,
56.444,-1.6429422,-9.898052,4.175663,-2.6843568,-2.7351768,-0.59054276,25472.0,30715.5,-5756.5,
56.559,1.4551549,-12.953053,4.2043932,-0.23969658,-2.053166,-0.5063405,-16000.0,-13316.5,-15996.5,
56.676,2.5469108,-11.181344,6.0790532,1.4965728,0.12036858,-0.5090051,-896.0,-10244.5,-9852.5,
56.793,2.03934,-8.310697,5.1572856,1.71826968,1.2088678,-0.6106606,-384.0,-18692.5,6787.5,
56.908,0.7488653,-5.0833136,3.8620224,2.4958072,1.5482078,-0.5504401,-7552.0,28667.5,23683.5,
57.025,-0.9605947,-1.2789266,5.123767,3.0616402,1.3061265,-0.5082058,-21888.0,-4868.5,-26237.5,
57.146,-2.600623,1.67791252,9.514732,2.0597416,0.508338,-0.6099944,32384.0,22011.5,-25213.5,
57.261,-5.0522856,3.164712,14.4731252,1.2363724,-0.22909696,-0.64823184,29824.0,-1284.5,-30590.5,
57.378,-2.7466692,6.849388,14.935205,0.4772207,-0.72764824,-0.678342036,-32384.0,-10756.5,-30846.5,
57.495,-0.35725588,4.4791284,11.190674,-0.5815679,-0.898850464,-0.7521522,-25728.0,-9476.5,-27774.5,
57.612,0.90209424,1.3451185,8.308055,-1.406669,-0.45852112,-0.84994392,-17792.0,5883.5,-20605.5,
57.734,-0.25430518,0.6460116,8.145249,-1.5308406,-0.2326942,-0.8612685,-14208.0,-31236.5,-18301.5,
57.849,-0.35486168,-0.5726371,9.213063,-1.3908146,-0.39496988,-0.8324906,-9344.0,-3844.5,-22653.5,
57.964,-0.412322468,-3.1464038,10.637613,-0.92250664,-0.4940939,-0.7323007,-384.0,16123.5,-30332.5,
58.082,2.2380588,-3.4241312,11.348691,-0.2214439,-0.14929146,-0.7079194,9856.0,27900.5,27523.5,
58.198,3.0664524,-2.9381082,11.109271,0.47735392,0.4667698,-0.6591568,16512.0,28412.5,25987.5,
58.320,1.71612284,-0.71868332,10.290454,0.95365568,1.1446502,-0.6207862,15744.0,20988.5,32387.5,
58.438,-0.64216584,0.66755944,9.555434,0.9692437,1.3920608,-0.618388,7040.0,9212.5,-26748.5,
58.552,-2.291771,1.5198953,9.356715,0.70104932,1.0645783,-0.64916444,-5504.0,-2820.5,-23677.5,
58.668,-4.396274,1.78804592,9.069411,0.27524218,0.328609,-0.6571583,-12928.0,-6916.5,-23165.5,
58.784,-3.8336368,1.5510199,9.2106696,-0.11312689,-0.5167432,-0.67527776,-13440.0,-4612.5,-23165.5,
58.901,-2.0140436,0.7657217,9.237005,-0.32176696,-1.1615825,-0.68020728,-3968.0,2043.5,-20860.5,
59.023,-0.20881534,-0.175199568,9.047863,-0.29165672,-1.392339,-0.6739455,12928.0,8444.5,-22396.5,
59.140,2.0058212,-2.150416,8.71507,-0.057169764,-1.0848412,-0.64010468,31616.0,9980.5,-26492.5,
59.255,2.585218,-0.3475821,9.090959,0.18397878,-0.46198516,-0.6413038,-17280.0,6652.5,-28796.5,
59.369,2.8413976,0.2174495,9.893017,0.2378042,0.28757378,-0.6462333,-7552.0,-3.5,-30589.5,
59.484,2.1590502,0.66755944,10.513115,0.16679194,0.868595264,-0.6602226,-8064.0,-5891.5,-26237.5,
59.608,0.23890036,1.0458434,10.620854,-0.023329034,1.1193364,-0.6750113,-17024.0,-8963.5,-20349.5,
59.725,0.18143952,2.3339238,9.670356,-0.24848984,0.955462,-0.748155236,-30080.0,-8195.5,-17277.5,
59.841,-3.0267908,0.56221456,9.754153,-0.35720652,0.19417868,-0.676476836,24704.0,-4355.5,-15997.5,
59.958,-3.1895966,-0.464898,10.264118,-0.28113144,-0.71672328,-0.652362,27776.0,-515.5,-18813.5,
60.073,-1.8464494,-1.1975236,11.001532,0.052213088,-1.3185289,-0.61132676,-23680.0,-771.5,-23165.5,
60.197,2.2739718,-0.70431816,11.152367,0.46096652,-1.4215166,-0.6085289,-1920.0,-6659.5,-30077.5,
60.314,2.4104414,-0.74262536,10.73817,0.7540753,-0.9945105,-0.56043244,17792.0,-17666.5,25218.5,
60.429,3.2651712,0.42095664,9.591347,0.8083004,-0.15835118,-0.57109092,30592.0,-32258.5,18562.5,
60.545,2.7695716,1.5079243,8.348757,0.56755156,0.7464222,-0.6145243,32384.0,17661.5,19074.5,
60.660,1.5652881,1.83114136,7.5634584,0.07992518,1.3707438,-0.66834976,23936.0,6909.5,27778.5,
60.784,-0.15853715,1.78804592,7.690351,-0.50189568,1.5071726,-0.72297452,3712.0,2813.5,-25469.5,
60.902,-2.4330288,1.2685042,8.109336,-0.9539493,1.0174146,-0.75708176,-16512.0,9212.5,-16765.5,
61.018,-3.2374806,0.380255232,9.217852,-1.097173,0.17965648,-0.73776316,-31104.0,23548.5,-12157.5,
61.136,-3.2111444,-0.735442736,9.825979,-0.9251713,-0.63465284,-0.69139868,-30336.0,-25347.5,-12413.5,
61.252,-1.805748,-1.2669556,9.679933,-0.46565676,-1.1854309,-0.6210526,-19584.0,-13315.5,-17021.5,
61.368,0.21016994,0.037884372,8.229047,0.084987976,-1.3321184,-0.51846456,-2176.0,-8195.5,-23933.5,
61.491,1.7711894,-0.24702564,7.371922,0.6850615,-1.0035702,-0.46264068,14976.0,-13058.5,31618.5,
61.607,3.5452928,0.3587074,6.5052216,0.9311396,-0.017658986,-0.44172336,26240.0,-26626.5,24450.5,
61.723,3.7296464,1.2469564,6.9170236,0.8304168,1.2332491,-0.45744464,25472.0,23293.5,27266.5,
61.842,2.4870558,2.513489,8.439736,0.45510436,2.117638,-0.52459324,6016.0,5885.5,-28029.5,
61.957,-0.419505068,3.3610364,9.689509,-0.09340866,2.2191604,-0.5786851,-22144.0,-4099.5,-16766.5,
62.079,-4.568657,2.5110948,10.438894,-0.58476544,1.3315737,-0.60626392,13184.0,-2307.5,-13950.5,
62.196,-7.06820336,0.461658036,10.489173,-0.7546353,-0.206580892,-0.5796177,-384.0,6395.5,-14973.5,
62.316,-5.401839,-0.7761442,10.467625,-0.430350432,-1.74886576,-0.5132686,6016.0,19196.5,-12413.5,
62.434,-1.3580322,-1.3723004,10.060611,0.19623606,-2.5570464,-0.441057184,-31616.0,26364.5,-12669.5,
62.553,4.7064804,-2.6172852,9.399811,0.7961763,-2.2346268,-0.381369632,1920.0,23805.5,-21885.5,
62.676,4.031316,1.3906083,8.971249,0.972174768,-0.78720264,-0.37577388,28544.0,9981.5,23938.5,
62.793,4.5843764,2.501518,9.988785,0.6814642,0.64863044,-0.4563788,32640.0,-5378.5,15745.5,
62.908,2.3577688,3.145558,10.869851,0.18184708,1.462007,-0.52485968,23168.0,-18690.5,20609.5,
63.024,-0.54879192,1.019507,10.503538,-0.29338878,1.5443441,-0.5877448,5248.0,-25858.5,31361.5,
63.140,-4.444158,1.69706608,9.411782,-0.6163413,0.98290768,-0.58148292,-15488.0,-23043.5,-23166.5,
63.262,-4.594993,-0.740231136,8.580994,-0.56637952,-0.16434658,-0.5391154,-26752.0,-15619.5,-17790.5,
63.378,-1.925458,-0.419408136,8.7653468,-0.224907884,-0.9871827,-0.4850235,-24960.0,-7427.5,-15486.5,
63.495,0.94040148,-0.055489496,8.722252,0.057009412,-1.056463,-0.455712616,-13696.0,-3331.5,-18814.5,
63.613,2.6546498,-0.687558768,9.301649,0.1678578,-0.46917964,-0.4589102,-4480.0,-5379.5,-23678.5,
63.729,2.8126672,0.4808117,9.9911784,0.23767098,0.21909292,-0.46796992,-2176.0,-11011.5,-27006.5,
63.846,1.9124474,1.0099302,10.25933,0.1934382,0.7878571,-0.47716288,-7040.0,-18179.5,-25982.5,
63.967,0.018633782,1.2182257,9.840344,0.031295776,1.107612,-0.4976805,-19840.0,-24323.5,-23422.5,
64.082,-2.3803564,1.10091,9.263342,-0.14909934,0.9294819,-0.50314296,32128.0,-25347.5,-19582.5,
64.197,-2.7730056,0.58136816,9.397417,-0.26101356,0.29303624,-0.4976805,19584.0,-23043.5,-19070.5,
64.313,-3.1800196,-0.38828352,10.393405,-0.14790024,-0.503953,-0.46224096,16256.0,-17411.5,-17022.5,
64.430,-2.1816376,-1.0921788,11.384604,0.14773988,-1.0799117,-0.41561004,21120.0,-12035.5,-16254.5,
64.553,2.7312644,-3.0219054,10.596911,0.5762116,-1.1928918,-0.3247463,-30592.0,-15107.5,-18558.5,
64.669,1.3881172,-0.8934601,10.9321,0.91528504,-0.9000495,-0.34113376,-17280.0,-26371.5,-24958.5,
64.784,2.2236936,0.57418556,10.034274,0.9693769,-0.212043384,-0.34619656,-10368.0,27388.5,31873.5,
64.903,2.123137,2.1016862,9.454878,0.59233252,0.5341848,-0.395891816,-9600.0,13052.5,22657.5,
65.019,0.957160864,2.8678308,9.260947,-0.08394922,1.0312705,-0.471433952,-19328.0,5116.5,19841.5,
65.143,-0.56555148,2.8055816,9.344745,-0.7914071,1.1546427,-0.5381828,29056.0,6652.5,23937.5,
65.258,-2.0260146,1.2613216,9.227428,-1.1737809,0.9069658,-0.5536376,11392.0,17660.5,30593.5,
65.374,-2.5144316,-0.5989733,9.272919,-1.1115619,0.39735632,-0.52046304,-2688.0,-32516.5,-27006.5,
65.490,-2.7011796,-1.975639,9.327985,-0.552257,-0.21071108,-0.43785964,-8576.0,-17668.5,-21886.5,
65.606,-2.0116494,-2.567007,9.732605,0.354648,-0.4915625,-0.29676776,-6272.0,-11012.5,-18558.5,
65.727,-3.37155568,-1.7984684,9.3543216,1.305919,0.21243136,-0.09105874,-2432.0,-18948.5,-21118.5,
65.843,-4.3316308,-0.26617924,8.262566,1.6564504,1.3018632,0.11678199,-5248.0,27899.5,-29310.5,
65.959,-5.7298448,1.86944868,7.0032152,1.2391702,1.5827146,0.210576784,-13952.0,8187.5,15745.5,
66.079,-7.5183132,3.533419,5.717529,0.08045811,1.0804329,0.19885244,-22400.0,-4100.5,-8063.5,
66.194,-9.103274,4.179853,5.937795,-1.0266936,0.26092756,0.16980802,-25984.0,-2564.5,-13951.5,
66.310,-7.087357,2.384202,5.7271056,-1.67965968,-0.30050892,0.16261354,-27520.0,5627.5,-2942.5,
66.439,-4.5758396,0.8662782,5.5427524,-1.4471713,-0.15555331,0.22549868,-25472.0,22779.5,16513.5,
66.556,-3.3452196,0.04746118,5.1644684,-0.8064623,-0.11824857,0.29637772,-24704.0,-27652.5,27777.5,
66.672,-3.0555212,-0.28772706,4.166086,-0.26607632,-0.77827616,0.36938844,-21888.0,-20484.5,-31102.5,
66.789,-3.0076372,0.43292764,4.494092,-0.048376516,-1.7917662,0.41815104,-12672.0,-20228.5,-26238.5,
66.906,-1.865603,1.1200636,7.5395165,-0.09447451,-2.4884324,0.4341388,13440.0,-21507.5,-18814.5,
67.029,1.6179604,1.3762431,11.513891,-0.36506718,-1.926463,0.4004313,-20096.0,-18435.5,-21118.5,
67.147,8.328908,0.9285274,13.924852,-0.67629532,-0.81131748,0.3043716,4992.0,-8194.5,-28542.5,
67.261,7.7902132,-0.8000862,13.340667,-0.5341376,0.6776749,0.29344664,11904.0,3069.5,-31357.5,
67.376,3.214893,-1.4297612,10.769295,-0.09594004,2.1702642,0.29731032,-640.0,10236.5,-23165.5,
67.492,-1.0084786,-1.829593,8.7438,0.60485624,2.500278,0.3548662,-29312.0,9212.5,-12157.5,
67.612,-4.0515092,-1.676364,7.93456,1.3193753,1.3330393,0.43347264,8576.0,-3843.5,-13950.5,
67.727,-6.4097976,2.9803584,7.1755976,1.4711257,-0.2805242,0.52020616,-128.0,-26116.5,-23934.5,
67.843,-5.198332,2.7888222,7.297702,1.0200048,-1.6310894,0.468778936,10624.0,16892.5,32641.5,
67.960,-2.2486754,4.792769,7.192357,0.11856224,-2.4230158,0.3982996,-31104.0,6652.5,27009.5,
68.075,1.5030389,4.6754528,6.861957,-1.0238956,-2.3141658,0.2933134,-3456.0,11004.5,20609.5,
68.192,7.1294132,3.5310248,6.095813,-1.9146798,-1.1650464,0.15755075,18816.0,27133.5,17281.5,
68.314,4.6083184,0.7345971,8.952095,-2.012738,0.57708524,0.13023834,24960.0,-12290.5,22145.5,
68.430,2.7456296,-2.0235234,10.074976,-1.5055266,1.75618168,0.15528582,13952.0,13821.5,-30333.5,
68.549,-0.07234585,-4.4584264,10.917735,-0.40903348,2.1685324,0.24828122,-9344.0,31996.5,-18301.5,
68.666,-3.2015676,-4.8582584,11.384604,0.93193896,1.6877008,0.37285244,26752.0,-31491.5,-11901.5,
68.783,-6.0219376,-4.391389,11.521073,1.8850752,0.7492201,0.47370848,8832.0,14844.5,-12413.5,
68.905,-4.192767,-0.002817057,9.785277,2.1629956,-0.46571564,0.5170086,4992.0,-19203.5,-20606.5,
69.020,-2.741881,2.8151584,7.9297716,1.6933554,-1.5857908,0.4904956,17280.0,18172.5,-31614.5,
69.135,-0.57991668,4.0194416,6.97209068,0.56768476,-2.0827432,0.38404388,-24448.0,2300.5,18817.5,
69.253,2.1398964,4.2636504,8.205105,-0.72265976,-1.6051092,0.23775594,-2688.0,252.5,8577.5,
69.370,4.9674488,3.9787404,10.450866,-1.6631391,-0.5918856,0.11691522,11904.0,11005.5,8065.5,
69.493,6.540439,0.2222379,10.805207,-1.9745006,0.7173778,0.032446616,13440.0,-32002.5,22657.5,
69.609,3.2101048,-2.7034764,10.019909,-1.4870075,1.7785644,0.05336392,384.0,-7170.5,-26238.5,
69.726,-0.57512824,-3.9604324,8.6935216,-0.441142136,2.1794574,0.141563,-26752.0,12284.5,-14461.5,
69.843,-3.136924,-3.5845428,7.10856,0.87371692,1.363949,0.28758444,11904.0,12540.5,-11901.5,
69.958,-2.6676604,-3.385824,8.640849,1.8196586,-0.12397751,0.36259364,-640.0,-7684.5,-16766.5,
70.075,-4.6213292,-0.30209224,10.338338,2.2390706,-1.3529025,0.486232232,7040.0,28924.5,-25982.5,
70.200,-0.9677773,3.0450018,11.195462,1.90212868,-1.8383972,0.46584784,31360.0,-3075.5,20096.5,
70.317,4.960266,5.2476672,11.442065,0.80763424,-1.384878,0.310367,-8064.0,-20739.5,-4991.5,
70.432,5.3289732,5.64271,9.327985,-0.498431632,-0.366325152,0.19232408,6784.0,-22530.5,-17023.5,
70.549,4.2372176,3.4783524,7.5993716,-1.68925252,0.9595922,0.034445084,9088.0,-12034.5,-8831.5,
70.666,2.03934,1.3427243,6.811679,-2.3928468,2.0199794,-0.062280796,-4480.0,8700.5,18817.5,
70.787,-0.47696596,-0.5893965,6.462126,-2.4056368,2.2355476,-0.06681066,-31616.0,-25347.5,-21118.5,
70.901,-2.96933,-1.92057252,5.650491,-1.78917584,1.6104268,0.0147268592,1152.0,11772.5,-12669.5,
71.019,-3.812089,-2.9189546,5.8923052,-0.78421268,0.404684,0.1351679,-17024.0,-32260.5,-19325.5,
71.134,-5.490424,-3.53426468,6.9050532,0.21075826,-0.8788657,0.2750607,-20608.0,-27396.5,-22397.5,
71.250,-4.8655376,-2.6938996,7.965684,1.1630951,-2.117117,0.4033624,-9856.0,30203.5,-15997.5,
71.371,-1.6357596,-1.2190716,9.107718,1.8409756,-2.7924662,0.5027529,22656.0,9468.5,-11645.5,
71.487,3.55247536,-0.172805368,9.275312,1.927576,-2.3578656,0.466514016,-3968.0,-16899.5,-26238.5,
71.606,8.448618,1.76410384,9.3064376,1.4011793,-0.81344916,0.37644968,25216.0,28669.5,11905.5,
71.724,6.063993,5.0968324,8.504379,0.54410284,0.7914543,0.31023376,-30336.0,18429.5,-4734.5,
71.839,3.1119424,5.1830236,7.1971452,-0.538401,2.0095876,0.18712808,28544.0,18429.5,1921.5,
71.954,0.21974674,4.5557428,6.028775,-1.70404116,2.3380028,0.061224564,6016.0,28925.5,26241.5,
72.077,-3.0722806,2.1519644,6.8188616,-2.298652,1.6262813,0.033379236,-24704.0,-9219.5,-15998.5,
72.194,-4.6572424,-0.16083437,8.482832,-1.6524806,0.5638954,0.13743283,19840.0,23036.5,-10621.5,
72.310,-4.855961,-2.827975,10.28806,-0.56864448,-0.5649729,0.2702644,14208.0,-22787.5,-11645.5,
72.424,-2.4904898,-4.104085,11.669515,0.41287004,-1.3851445,0.37138692,23936.0,-19203.5,-14205.5,
72.542,0.68422184,-3.539053,10.963224,1.2079941,-1.6445457,0.44399792,-22912.0,-27139.5,-15485.5,
72.664,2.8078788,-0.7905094,8.86351,1.8409756,-1.0033038,0.4928938,128.0,19709.5,-21373.5,
72.779,3.0520872,1.6515763,7.400653,1.76436768,0.0744038,0.458520136,13696.0,-1794.5,-30078.5,
72.900,1.9124474,3.2149902,8.7174632,0.81882568,0.9507989,0.32728736,13440.0,-20738.5,30849.5,
73.016,0.33227424,5.350618,10.9704072,-0.30244844,1.242975,0.23575748,3456.0,-26626.5,-32638.5,
73.133,-2.207974,4.1008444,12.19145,-1.2549186,1.0184803,0.12264416,-11392.0,-18691.5,-23166.5,
73.254,-4.4704944,1.0865448,12.718175,-1.6474178,0.22948496,0.11398413,-25984.0,2812.5,-13181.5,
73.372,-4.7434336,-1.92536092,12.296795,-1.3485802,-0.8482225,0.16474522,-27776.0,29180.5,-11645.5,
73.490,-3.2733936,-3.3475168,11.664726,-0.5296077,-1.83386732,0.2669336,-16768.0,-17155.5,-17533.5,
73.606,-1.1473424,-2.3204044,10.470019,0.33479656,-2.2323618,0.35659824,7808.0,-8450.5,-30589.5,
73.724,2.3050964,-1.0754194,8.829991,0.9665791,-1.8296038,0.40442824,31360.0,-10754.5,18818.5,
73.840,3.93554784,0.0714032,6.78294836,1.298991,-0.8235748,0.4153532,-19328.0,-16898.5,1666.5,
73.961,4.1582084,0.79445216,5.6552796,1.314046,0.46117408,0.378714632,-14720.0,-25346.5,-3709.5,
74.079,4.1773624,1.78804592,5.746259,1.1092697,1.5797834,0.32129196,-21888.0,31229.5,5762.5,
74.197,3.061664,2.4249036,6.3807224,0.6706725,2.3711772,0.24601628,26752.0,22013.5,23170.5,
74.313,1.1199665,3.0785206,7.4150176,0.15147036,2.4623072,0.175004052,-4224.0,14844.5,-21117.5,
74.432,-1.4753482,2.8606482,8.094971,-0.30218202,1.74592284,0.12264416,30336.0,13820.5,-11645.5,
74.556,-3.9629236,3.3059696,8.54987,-0.8369722,0.4619735,0.11291829,8576.0,20220.5,-11133.5,
74.671,-4.0323552,1.99873568,8.839568,-1.2344011,-0.70433276,0.10932104,4480.0,32508.5,-11133.5,
74.790,-2.351626,-0.1823822,9.26813,-1.3124746,-1.6160342,0.12251093,14464.0,-13571.5,-12669.5,
74.905,0.06412363,-2.1360508,9.526704,-0.8514944,-1.89102352,0.16780954,-31616.0,5116.5,-20604.5,
75.021,2.5205746,-3.2637198,9.804431,0.05554387,-1.3619622,0.2444175,-8320.0,16380.5,31363.5,
75.142,4.352139,-2.6579866,10.503538,0.933138,-0.3089025,0.2801235,3712.0,15101.5,25731.5,
75.257,4.3808692,-0.06506631,10.649585,1.2889986,0.7225738,0.2801235,3712.0,3581.5,30851.5,
75.373,2.6546498,2.9085324,9.742182,0.9290079,1.551272,0.2183042,-7296.0,-11523.5,-23677.5,
75.487,0.12637288,4.35463,9.2585532,-0.1241851,1.82492916,0.11251859,-28800.0,-22787.5,-14973.5,
75.604,-2.0858696,3.8470592,9.62726,-1.1632556,1.2408433,0.029915221,11392.0,-18947.5,-12157.5,
75.722,-4.714703,1.4121561,10.515509,-1.6656706,0.06094744,0.037242936,-3200.0,-516.5,-19069.5,
75.845,-4.6333004,-1.5015874,10.776477,-1.4882066,-1.2168734,0.094265912,-1408.0,23547.5,-29308.5,
75.963,-1.99489,-3.52468768,10.395799,-0.74424328,-2.0217232,0.18539606,12160.0,-25347.5,24451.5,
76.081,1.2731955,-3.993951,9.816402,0.30495274,-2.1745396,0.28025672,30848.0,-18947.5,15235.5,
76.197,3.3513624,-2.6244678,8.585782,1.2515607,-1.5304998,0.362193952,-14976.0,-24835.5,11395.5,
76.316,4.4670608,-0.69474136,8.169191,1.7880828,-0.4012317,0.405627336,-4224.0,26620.5,16515.5,
76.439,4.2372176,1.124852,8.272142,1.72852852,0.5694911,0.37165336,-3968.0,4860.5,29571.5,
76.555,3.9523072,2.5110948,7.4126232,0.98896192,1.1166718,0.28585244,-12928.0,-15875.5,-24189.5,
76.673,3.7057044,2.69066,6.9170236,-0.39131368,0.8021128,0.18113268,-27520.0,-26115.5,-16253.5,
76.789,2.8270324,1.5462315,7.5658532,-1.431983,0.4202721,0.13863191,27520.0,-15619.5,-15485.5,
76.906,2.2021458,-0.4744748,8.633666,-1.5602846,0.5090041,0.1458264,20096.0,5372.5,-21116.5,
77.020,1.5078273,-2.7202358,9.509944,-0.97539944,0.70178976,0.20737922,11904.0,25084.5,-30588.5,
77.142,0.25087136,-3.9987396,10.192292,0.00464952,0.6983257,0.29904234,2176.0,-30979.5,27267.5,
77.257,-1.0276322,-3.3355458,10.316791,0.9218134,0.47782796,0.37898108,-8320.0,30459.5,26755.5,
77.374,-2.2175508,-1.3818772,9.981602,1.5188226,0.10957684,0.4392016,-14720.0,13307.5,-31100.5,
77.490,0.2963612,-1.5638366,8.53311,1.5799756,-0.30064212,0.45265796,-16768.0,-8964.5,-21629.5,
77.605,-0.68526152,2.5398252,8.528321,1.05238,-0.6943404,0.412155636,-12672.0,32763.5,-16509.5,
77.726,0.19819892,3.437651,8.559446,0.0077138548,-0.7080633,0.30330572,-1920.0,19707.5,-14205.5,
77.842,0.68182768,3.1575294,10.15159,-0.9375618,-0.5344629,0.205647232,6528.0,22780.5,-12669.5,
77.964,1.2947433,1.4384923,11.475584,-1.5268436,-0.25214596,0.1462261,13440.0,-25091.5,-12669.5,
78.082,2.3027022,-0.716289136,11.90654,-1.5277762,0.15780654,0.13063804,14208.0,-2307.5,-17789.5,
78.200,1.601201,-2.6891112,10.831544,-1.0023122,0.66435176,0.16874216,9600.0,17148.5,-26748.5,
78.323,0.91167108,-3.041059,9.124477,0.027565316,1.1936793,0.25307756,-384.0,28923.5,30595.5,
78.439,-0.38598628,-1.9086015,8.53311,0.8210906,1.2373793,0.32422304,-15232.0,24827.5,29059.5,
78.556,-1.6860378,-0.15125756,8.60733,1.1574994,0.8427484,0.36246044,-29824.0,11259.5,28547.5,
78.672,-2.6652662,1.9005732,8.681551,0.9836327,0.08865954,0.34127664,26496.0,-8196.5,31618.5,
78.787,-3.242269,2.9899352,9.658385,0.3755653,-0.70433276,0.30996728,26752.0,-23300.5,-31357.5,
78.904,-2.1816376,3.0689438,10.49875,-0.3244316,-1.3194615,0.26666716,-29312.0,-27908.5,-24445.5,
79.026,0.085671424,2.216608,10.326367,-0.90945,-1.4261796,0.21417402,-13184.0,-21764.5,-18557.5,
79.142,1.9124474,2.0561964,8.885057,-1.2823644,-1.0091659,0.19418934,2688.0,-8195.5,-18813.5,
79.260,2.1997516,-1.6787582,9.318408,-1.0044439,-0.18313218,0.169008624,12416.0,8700.5,-24956.5,
79.378,2.5804296,-2.863888,9.304043,-0.25235356,0.777998,0.226298052,10880.0,20732.5,-32124.5,
79.494,1.5006447,-2.4975752,9.907382,0.5511641,1.3354374,0.2813226,-1408.0,22011.5,-32636.5,
79.615,-0.8289136,-0.855152832,10.165956,1.0246678,1.2970668,0.31849408,-18304.0,13051.5,-32636.5,
79.733,-0.61582964,-5.9188896,9.426147,0.9555209,0.7149796,0.23828888,-32128.0,-1796.5,-32125.5,
79.848,-4.3675436,2.5829208,8.389458,0.52505076,-0.23256098,0.2919811,25216.0,-18180.5,-32381.5,
79.964,-3.0938284,2.4871528,7.8148492,-0.22290944,-1.2064813,0.24335166,30080.0,-26628.5,-27261.5,
80.082,-0.81694264,1.4049735,7.8747043,-0.81618816,-1.7456682,0.19032562,-20352.0,-23044.5,-21373.5,
80.222,3.94033632,-6.0146576,6.4046644,-0.95155112,-1.4792057,0.0015369672,4992.0,-7939.5,-18045.5,
80.341,4.469455,-2.0642248,7.989626,-0.7495725,-0.36286116,0.15155534,19840.0,6396.5,-25212.5,
80.456,4.81422,-3.2278066,8.391852,-0.45166744,0.7350975,0.123710016,20352.0,17148.5,-30076.5,
80.572,4.1582084,-4.6906644,8.501986,-0.59875476,1.0974864,0.0291158368,10368.0,23804.5,32131.5,
80.690,2.0968008,-5.590884,9.14842,-0.6541789,0.42107148,-0.011786156,-896.0,32251.5,25731.5,
80.804,0.8494218,-6.4671616,9.608107,0.27337694,-0.033913204,0.0634895,-4480.0,-28164.5,19075.5,
80.925,1.0864477,-5.576519,9.22264,1.4736571,-0.11731595,0.15195504,-4480.0,30971.5,23939.5,
81.041,1.91963,-2.8854358,8.138066,2.2673156,0.15847272,0.19991828,-4480.0,10491.5,-27772.5,
81.157,2.0130038,0.43771608,7.314461,2.3692374,0.7012568,0.176602816,-6528.0,-21764.5,-16509.5,
81.274,0.68901024,3.7752332,8.81802,1.4664626,1.180756,0.07308215,-15744.0,7163.5,-17533.5,
81.389,-2.387539,6.933185,10.201869,0.24579808,1.1531772,-0.04469427,-28288.0,-11780.5,-28542.5,
81.510,-3.242269,6.81586936,10.695074,-1.0666629,0.8086412,-0.13196074,24192.0,-12548.5,29569.5,
81.628,-2.9765126,3.571726,9.483608,-2.1002708,0.17659216,-0.19817666,15232.0,3579.5,25986.5,
81.744,-1.5782988,0.059432188,8.420583,-2.4234898,-0.49662524,-0.21443088,13696.0,30459.5,24706.5,
81.861,-1.9901016,-1.2741382,8.798866,-1.963176,-1.161316,-0.14142016,19584.0,-5636.5,23426.5,
81.976,-2.2390986,1.2613216,9.430936,-1.1106292,-1.333584,-0.025775436,31104.0,15867.5,19587.5,
82.097,1.0720825,-4.2190064,10.3574916,-0.010405585,-1.4388366,0.061224564,-18304.0,27387.5,19587.5,
82.216,2.6953512,-3.883818,10.350309,0.9448624,-0.9624017,0.1368999,-4736.0,26107.5,25475.5,
82.331,3.37291,-2.1719636,9.876257,1.68815952,-0.191925452,0.19005916,3968.0,12028.5,-29052.5,
82.452,2.860551,-0.026759074,8.71507,2.0270998,0.794918336,0.20404844,4480.0,-14339.5,-18045.5,
82.568,1.2660129,2.7122078,8.255383,1.6346005,1.4637392,0.14702546,-6784.0,22011.5,-14461.5,
82.686,-0.800183236,5.594826,7.731053,0.7351564,1.5667268,0.053230688,-24448.0,-4.5,-21886.5,
82.809,-2.3133188,4.560531,8.683945,-0.42142396,1.093756,-0.038698868,23936.0,-7940.5,31105.5,
82.925,-3.3524022,3.4472276,8.995191,-1.2842295,0.38509904,-0.09079228,13184.0,-2052.5,23169.5,
83.041,-2.8089184,1.1056984,8.956883,-1.6703336,-0.3423435,-0.10251664,10112.0,14587.5,22402.5,
83.159,-1.250293,-1.4321554,8.676763,-1.4258543,-0.8743358,-0.065345116,13952.0,32251.5,25474.5,
83.274,0.18862212,-4.025076,8.3272088,-0.5168175,-1.0601935,0.0341786216,24192.0,-19204.5,28802.5,
83.397,0.9930739,-3.0554242,9.574588,0.60871992,-0.8700724,0.14169622,-29056.0,-15620.5,-28285.5,
83.512,1.3569925,-1.5542598,11.224193,1.1292544,-0.5741659,0.187927468,-19840.0,-25604.5,-20605.5,
83.631,1.5724707,1.3379359,12.133989,1.1032744,-0.2015181,0.1710071,-13952.0,23291.5,-16765.5,
83.750,1.1271491,3.8590302,11.286442,0.6737368,0.18138848,0.13463497,-11136.0,6139.5,-15741.5,
83.869,-0.28542984,4.632357,9.201093,-0.213450032,0.407748336,0.058293476,-13952.0,-1796.5,-18814.5,
83.992,-0.7618759,2.2094254,8.047087,-1.1649876,0.36045128,-0.041629956,-19328.0,3835.5,-20605.5,
84.109,-1.2862062,-0.0052112564,7.664015,-1.4379783,0.08173151,-0.060015864,-23936.0,20731.5,-21885.5,
84.225,-1.0324206,-1.86550584,8.43016,-0.9640748,-0.30757016,0.0027360496,-24960.0,-25092.5,-23677.5,
84.341,-0.51048476,-2.9764154,9.897805,-0.0301238136,-0.38351196,0.07814493,-21120.0,-13316.5,-25213.5,
84.459,1.649085,-3.823963,10.979984,0.95365568,-0.043239384,0.173272032,-18048.0,-16388.5,-22909.5,
84.580,2.6953512,-2.0833784,10.9943496,1.689092,0.5420455,0.23069468,-18560.0,30971.5,-18813.5,
84.696,2.20454,0.9261332,10.422135,1.7975423,1.1176044,0.2171051,-24960.0,5371.5,-22397.5,
84.813,0.18862212,3.674677,9.50755,1.1343172,1.4263011,0.14782487,29824.0,-19460.5,29057.5,
84.929,-2.0595334,5.980293,8.947307,-0.074889528,1.1791572,0.04883406,18048.0,-32260.5,13185.5,
85.044,-5.406627,5.518212,8.44213,-1.3674991,0.27305156,-0.038432404,10624.0,-30468.5,1665.5,
85.160,-4.381909,3.09528,8.286508,-2.2572172,-0.81584732,-0.10078462,9856.0,-16644.5,8577.5,
85.279,-2.3252898,-0.6684051,8.044693,-2.382055,-1.5603436,-0.088793816,19072.0,13819.5,25730.5,
85.394,-1.4490118,1.6467879,7.1372904,-1.694182,-1.5299668,0.004334824,-31360.0,-22788.5,-29053.5,
85.510,0.7177407,-4.537435,6.4453664,-0.20092626,-1.5348964,0.14009746,-13440.0,-5124.5,-24701.5,
85.627,2.3745282,-5.150351,6.976879,1.2963264,-0.9218994,0.28518626,896.0,-5891.5,-20605.5,
85.743,3.226864,-4.051412,8.298478,2.5149924,0.07213887,0.38151246,9344.0,-26115.5,-13949.5,
85.865,3.143067,-0.5510892,9.007162,2.9262774,1.0593823,0.38777432,8576.0,-4611.5,-14462.5,
85.980,1.7759778,4.855018,9.153209,2.2050964,1.714347,0.28971616,128.0,18684.5,-32382.5,
86.096,0.36818724,9.207677,8.710281,0.57794356,1.85410668,0.12850634,-9856.0,-6916.5,6016.5,
86.213,-2.765823,8.379283,7.6711976,-1.4499692,1.4279,-0.044294576,-21376.0,-11780.5,-8831.5,
86.327,-3.95095268,4.292381,7.0630708,-3.0611346,0.64290152,-0.173662116,-31104.0,4091.5,-1150.5,
86.445,-3.8671556,-0.6851645,6.8571688,-3.5203824,-0.372853468,-0.19044926,25472.0,-24836.5,19329.5,
86.569,-3.041156,-4.369841,6.6847864,-2.4947686,-1.3377141,-0.055752464,28288.0,20219.5,-30589.5,
86.685,-1.1808612,-6.5006804,7.699928,-0.7991345,-1.7695167,0.108521656,-23424.0,-17668.5,-26749.5,
86.803,-0.1226241,-6.0146576,9.050258,0.9631151,-1.6570694,0.31569624,-5248.0,-11780.5,-20349.5,
86.919,1.9387836,-4.0969024,9.754153,2.255458,-1.0290174,0.43160744,14208.0,-28419.5,-13181.5,
87.035,3.0281452,0.12646984,9.667962,2.8815114,0.060414516,0.5004879,29568.0,2812.5,-11901.5,
87.156,-3.7187152,3.3873724,10.319184,2.4959404,1.2328494,0.53073144,-31872.0,24828.5,-26238.5,
87.274,-1.7027972,4.926844,8.3990344,1.3195086,1.6783746,0.40829196,27008.0,-2819.5,17792.5,
87.391,-4.4489464,4.110421,7.72387,0.17918246,1.0623134,0.33954462,18048.0,-17411.5,-639.5,
87.508,-5.164813,3.3873724,8.051875,-0.711868036,-0.117049484,0.31276512,14976.0,-18691.5,-4223.5,
87.626,-3.919828,2.5757382,9.926536,-1.5445633,-1.0872394,0.26999792,19584.0,-11779.5,7552.5,
87.749,-0.44823556,1.1631591,11.583323,-1.93466452,-1.2976116,0.24908062,31360.0,8188.5,27521.5,
87.868,1.2947433,0.58855076,11.676697,-1.80449744,-0.7794752,0.35193516,-19328.0,-29443.5,-22654.5,
87.986,3.772742,-1.745796,9.691904,-1.1467348,0.37830424,0.29571156,-13696.0,-4355.5,-17022.5,
88.101,2.2787602,-3.0458474,9.588953,-0.30937654,1.2391113,0.34767172,-20608.0,13052.5,-11901.5,
88.219,-0.59907024,-3.4672268,9.701481,0.750478,1.4199061,0.44293208,26496.0,14844.5,-10109.5,
88.340,-3.2829704,-2.6220736,9.545857,1.7237322,0.7297683,0.5423225,7552.0,-1795.5,-14206.5,
88.456,-4.429793,0.49038848,9.871469,2.1063724,-0.2160403,0.6466426,2944.0,-29699.5,-23934.5,
88.570,-2.387539,2.1423876,9.780489,1.77715792,-0.891123,0.5845569,11648.0,5884.5,22913.5,
88.686,0.016239584,5.5110292,9.59853,0.8429405,-1.0580617,0.524736,27264.0,-13571.5,4480.5,
88.800,3.3274204,6.765591,6.25383,-0.59449136,-0.31196678,0.3572644,-23168.0,-20483.5,-4223.5,
88.915,3.60514784,4.448004,7.8579452,-1.84819736,0.624782,0.1710071,-17792.0,-13571.5,4736.5,
89.039,1.5054331,1.3115997,8.650426,-2.4909048,1.5839137,0.0808095536,-26752.0,13564.5,30849.5,
89.157,-1.6333654,-0.68995292,8.841962,-1.7706568,1.99932868,0.15648488,14976.0,-16131.5,-17534.5,
89.276,-4.879903,-2.15281,7.82682036,0.3810278,1.88022,0.43746956,-10368.0,1787.5,-18301.5,
89.396,-8.461629,-0.4792632,5.9042764,2.3517842,1.0993516,0.6569014,-28032.0,-12548.5,32641.5,
89.511,-8.911738,2.9013498,1.7000584,2.9713096,-0.1333037,0.7758769,-31104.0,15867.5,8833.5,
89.633,-6.0937632,4.448004,1.4390904,1.9201151,-0.89085656,0.78373752,-19328.0,-13316.5,-16767.5,
89.751,-4.5902048,5.6953824,3.378394,0.36903696,-1.3303864,0.7159229,-3200.0,-28932.5,31360.5,
89.867,-3.59182268,6.6339096,5.662462,-1.233202,-1.7735136,0.5934833,11136.0,-29699.5,-29055.5,
89.983,-0.65174264,6.4734984,8.011174,-2.784813,-1.8425274,0.44080036,25472.0,-17667.5,-1919.5,
90.099,3.2292584,2.372231,9.871469,-3.4484376,-1.2706989,0.36272688,-23680.0,15612.5,29569.5,
90.215,5.360098,-5.564548,10.118072,-3.0626002,-0.66396376,0.372452732,-10624.0,-1539.5,-18302.5,
90.338,2.822244,-6.9651555,8.185951,-1.2836966,0.30076368,0.4646488,-6272.0,-20739.5,-19581.5,
90.457,0.27002498,-5.2748492,5.650491,0.69385468,0.57242216,0.62812348,-14208.0,-4867.5,-20861.5,
90.574,0.09524828,-4.3171688,6.96011968,2.1512714,0.21442982,0.7548264,-21632.0,-17155.5,-14717.5,
90.691,0.519022,-2.710659,9.3543216,2.9198824,0.14341758,0.814380736,-23680.0,15100.5,-12413.5,
90.807,-0.34289068,0.99556504,8.631272,2.80557,-0.069885632,0.7846702,-19840.0,-26371.5,-24190.5,
90.927,-0.43626456,6.66264,7.8340036,1.6224764,-0.18899436,0.6776855,-10368.0,3580.5,15745.5,
91.044,0.19341052,8.060854,6.86913968,-0.2931223,-0.1337034,0.493826432,-1408.0,-7683.5,-127.5,
91.161,1.8358328,7.1678168,7.989626,-2.2505556,0.2573303,0.2886503,2688.0,-514.5,7296.5,
91.277,1.9842734,2.7361498,11.533045,-3.1511988,0.970517168,0.188327152,-3456.0,29692.5,31873.5,
91.397,-2.4162692,-4.547012,11.475584,-2.824116,1.2220577,0.19432256,-20608.0,13308.5,-14205.5,
91.519,-2.2989536,-8.162256,9.921747,-1.1783106,0.8190332,0.32915258,26496.0,-14083.5,-14717.5,
91.635,-3.61097632,-6.596449,7.383893,0.8193585,-0.04990095,0.51794124,14464.0,-1795.5,-19069.5,
91.750,-3.4984484,-3.2732966,5.8228736,2.3167444,-1.184365,0.6864788,16512.0,-18947.5,-13949.5,
91.866,-2.5718924,0.5167247,5.825268,2.7405532,-2.1855976,0.73377584,-28288.0,9724.5,-12669.5,
91.981,0.3155148,2.6020744,6.521981,2.091184,-2.3225596,0.6792843,4736.0,-26626.5,32641.5,
92.096,3.55247536,8.834182,4.6592916,0.7811212,-1.3827463,0.57869464,-31872.0,20477.5,-894.5,
92.225,6.5979,6.8278402,8.071029,-0.74970576,0.124232284,0.34500712,-16000.0,19709.5,-21118.5,
92.343,6.123848,4.71376,7.424595,-2.0280596,1.78855692,0.17220618,-18560.0,32509.5,-6526.5,
92.459,2.0106096,0.6340406,8.317632,-2.6120122,3.140321,0.08214187,25728.0,-7426.5,26497.5,
92.574,-1.2574756,-2.3754708,8.224258,-2.1247854,3.2171956,0.12464263,-17280.0,28668.5,-14205.5,
92.691,-6.5917572,-10.527727,1.2307949,-0.778084,2.3904958,0.218570652,7552.0,-9219.5,-15741.5,
92.815,-9.910121,-6.823898,8.762954,0.9609834,-0.404162832,0.482635,-13184.0,-4100.5,-23933.5,
92.929,-8.380226,-5.566942,8.387064,2.4839494,-2.5610432,0.686079,-5248.0,-25604.5,-15997.5,
93.043,-3.37395,-0.51517624,8.777319,3.037259,-3.88163132,0.77974068,31104.0,-515.5,-13694.5,
93.158,2.3577688,3.8374824,7.7813304,2.3495192,-3.81994532,0.72058592,19072.0,26621.5,18817.5,
93.277,8.221169,7.30189236,6.184398,0.7987077,-2.5525168,0.58602244,-3968.0,12541.5,23169.5,
93.393,7.864433,5.961139,5.3464276,-0.45553112,-0.8359653,0.377115816,12672.0,16894.5,-13694.5,
93.515,7.8716152,4.7353076,4.417477,-1.4918039,0.89550792,0.222834052,15744.0,25598.5,-16254.5,
93.633,6.2028564,3.152741,3.7806196,-2.2177808,2.4564452,0.10559056,9088.0,-27137.5,15745.5,
93.750,1.7592184,-0.26139084,7.972867,-2.3574074,3.6428692,0.06069164,-18048.0,-7426.5,-1150.5,
93.865,0.3131206,-1.3292048,6.691969,-1.9635756,3.855373,0.10385856,4992.0,21757.5,-23677.5,
93.980,-4.1233352,-3.5582066,6.1389084,-1.0962403,3.1672336,0.188193932,19328.0,-17667.5,-12157.5,
94.106,-7.099328,-4.4823684,5.6145784,0.12335857,1.4000546,0.3456733,-20608.0,-6660.5,-24189.5,
94.222,-7.417757,-3.3427284,6.122149,1.0669022,-0.41681976,0.4721097,-31872.0,-14596.5,-30077.5,
94.338,-6.4768352,-1.6117206,6.1628504,1.7446495,-2.2899176,0.58788764,-24192.0,26107.5,-22909.5,
94.457,-3.1776254,0.8183941,8.480437,1.7511778,-3.6879132,0.63012192,7808.0,-2563.5,-12926.5,
94.573,3.1023656,3.569332,9.940901,1.106605,-3.5556148,0.56563808,-7296.0,-25347.5,-25726.5,
94.694,11.268988,4.0050764,11.391787,0.12455764,-1.6373512,0.40815872,-28544.0,31741.5,4481.5,
94.813,9.487701,3.1120394,10.999138,-0.6010197,0.73523068,0.287318,-14976.0,-29954.5,-10366.5,
94.929,4.342562,1.1344287,10.084553,-0.9628758,2.5333194,0.19805304,-23168.0,-19970.5,5249.5,
95.047,-1.331696,-0.14886336,7.786119,-0.8654837,3.0090882,0.18699484,11392.0,-3586.5,-27518.5,
95.162,-4.480071,-0.06746051,6.122149,-0.57663832,2.0927238,0.20151706,-27008.0,9980.5,-10877.5,
95.278,-4.535138,-0.9413441,5.435013,-0.13284512,0.53605,0.3240898,13440.0,17916.5,-9597.5,
95.397,-5.011584,-0.36912992,7.264183,0.2916296,-1.0410082,0.39963192,9344.0,17916.5,-10621.5,
95.512,-3.50084268,-0.009999663,9.327985,0.5082636,-2.1369684,0.459719168,25216.0,12028.5,-10877.5,
95.630,0.83505656,0.6196754,10.489173,0.471358536,-2.3488062,0.452258268,-7296.0,4348.5,-18045.5,
95.749,7.72078036,0.059432188,9.483608,0.3490523,-1.4055289,0.3335492,21376.0,1277.5,30338.5,
95.865,6.6409956,1.4839821,9.572193,0.186909868,0.19737622,0.35246808,-29568.0,1021.5,18050.5,
95.990,4.131872,1.4576459,9.009556,-0.0429140184,1.6366733,0.2750607,31104.0,3581.5,23170.5,
96.106,0.8685754,1.4767995,8.331997,-0.18720348,2.1797238,0.22509898,8832.0,6909.5,-25725.5,
96.222,-1.7506814,1.9556398,8.269748,0.44671076,1.4243027,0.236690092,-17024.0,8956.5,-13693.5,
96.340,-2.2582522,3.1216162,7.3288264,1.2802054,-0.20165134,0.15328735,-31872.0,-1027.5,-13182.5,
96.458,-2.0284088,4.92445,7.831609,0.6293708,-1.1707754,0.06508827,-24704.0,-18947.5,-18046.5,
96.578,-0.019673408,5.9539568,9.179544,-0.4868405,-1.5199745,-0.04349519,-7040.0,-25091.5,-26494.5,
96.693,2.2811544,4.974728,9.833161,-1.3516445,-1.1958228,-0.13582444,10368.0,-16898.5,-31102.5,
96.809,3.7535884,2.8486772,10.16835,-1.6628727,-0.37871564,-0.20443854,21376.0,509.5,31106.5,
96.926,5.0105444,0.8471245,10.697469,-1.5056599,0.5873441,-0.215629952,22144.0,20477.5,31362.5,
97.044,1.6059894,-1.99239852,10.9225232,-1.0206981,1.2217912,-0.2221583,13184.0,-25858.5,-28797.5,
97.163,-1.2550814,-3.36427616,10.304819,-0.41329688,1.2808126,-0.184986768,-2432.0,-14851.5,-23933.5,
97.288,-3.5702748,-2.5358824,8.48762,0.26991292,0.60932724,-0.11650591,-18304.0,-10755.5,-18301.5,
97.405,-2.6293532,-0.9796514,7.4317776,0.7540753,-0.4326743,-0.055086308,-23936.0,-16131.5,-15741.5,
97.520,-1.0396032,-0.26139084,8.885057,1.0152085,-1.1212133,-0.018048026,-15744.0,-27651.5,-15485.5,
97.637,0.530993,0.13844084,10.146802,1.1876097,-0.8518198,0.042172496,-128.0,20988.5,-19837.5,
97.753,3.595571,0.5358783,11.303202,1.1949374,-0.16741091,-0.008721838,10624.0,3837.5,-26493.5,
97.875,3.5788116,2.573344,11.011108,0.81882568,0.5618969,-0.07800208,12416.0,-13058.5,-30846.5,
97.990,1.6035952,2.4799702,9.857103,0.23047648,1.0461924,-0.12996226,4992.0,-22786.5,-29566.5,
98.106,2.1398964,3.083309,7.23066436,-0.5900947,1.2086012,-0.28331144,-9088.0,-25091.5,-24958.5,
98.223,-2.8472256,1.4528575,8.183557,-1.3188696,0.339001068,-0.27918124,-23424.0,-15619.5,-17534.5,
98.342,-4.0754516,-0.5558776,9.962448,-1.4058696,-0.8647432,-0.249071,-28032.0,3068.5,-12157.5,
98.461,-3.0004546,-3.076972,11.717399,-0.84523256,-1.6903772,-0.173662116,-14464.0,24572.5,-15229.5,
98.580,-0.00770241,-3.5462356,11.645573,0.0198379016,-1.8317356,-0.062414024,7552.0,-30466.5,-26493.5,
98.697,3.99300868,-3.100914,10.400587,0.9854979,-1.2551109,-0.020979112,30336.0,31485.5,22914.5,
98.814,4.184545,-1.2142832,8.015963,1.5994275,0.041895376,0.005533905,-24192.0,19197.5,12418.5,
98.929,2.9539252,0.8159999,7.21869336,1.6327352,1.2626932,-0.023910198,-26752.0,1533.5,13186.5,
99.052,0.81590296,2.7337556,7.2330584,0.980834832,1.8285262,-0.10278309,24192.0,-18690.5,21121.5,
99.171,-1.3005714,4.855018,7.642467,-0.0679615,1.5127683,-0.1777923,3456.0,-29442.5,31361.5,
99.285,-3.2925472,4.380966,9.232217,-1.0336216,0.89977132,-0.2606621,-14464.0,-27651.5,-26494.5,
99.400,-2.9190516,2.8199468,10.09413,-1.5670794,0.29157072,-0.28597604,-25984.0,-12803.5,-17022.5,
99.517,-1.0084786,0.33955376,9.524309,-1.5589524,-0.22616588,-0.26625782,-31616.0,9468.5,-12925.5,
99.634,3.1047596,-4.417725,8.185951,-1.0826507,-0.4398688,-0.3375365,-27520.0,-31235.5,-13181.5,
99.755,1.1941868,-1.3627236,6.952937,0.5265163,-0.42134964,-0.12902964,-22656.0,-18691.5,-15229.5,
99.871,0.7584421,0.171959668,6.895476,2.0702668,-0.30796988,-0.026308362,-17024.0,-30211.5,-14973.5,
99.988,0.080883024,3.0665496,6.586624,1.6992176,-0.2621383,-0.080666708,-10880.0,2812.5,-18045.5,
100.104,0.28199598,5.556519,8.911394,0.4437797,-0.54085804,-0.19604496,-6272.0,-19203.5,-25982.5,
100.220,-0.73314552,5.937197,10.951254,-0.74131216,-0.7534951,-0.27998064,640.0,-22786.5,-32382.5,
100.342,0.5693002,3.6483408,12.016673,-1.4299844,-0.6194645,-0.3302088,8064.0,-12290.5,-31102.5,
100.464,2.3529804,0.16717127,11.662332,-1.5416323,-0.13130524,-0.3523252,12928.0,5373.5,-31101.5,
100.581,2.7576006,-2.030706,10.558604,-1.0468115,0.6615539,-0.32354724,12160.0,25341.5,-29053.5,
100.698,1.5557113,-2.1695696,10.345521,-0.25541782,1.3211816,-0.26825628,2432.0,-29186.5,-24445.5,
100.816,-0.51048476,-2.267732,10.426924,0.5329114,1.4758632,-0.19564528,-14720.0,-28675.5,-17277.5,
100.938,-2.5240084,-1.757767,10.412559,1.1892084,1.0227438,-0.12596532,32384.0,24828.5,-10621.5,
101.055,-1.652519,-1.5183468,9.98639,1.5466678,0.240942852,-0.1169056,22656.0,4348.5,-12413.5,
101.171,-3.58464,1.1751301,8.691128,1.4519404,-0.6506406,-0.05215522,21632.0,-18947.5,-16766.5,
101.285,-1.6812494,2.2261848,8.317632,0.982566864,-1.2933481,-0.08586272,32128.0,25852.5,-25982.5,
101.402,0.06651783,3.1623178,8.336785,0.27430958,-1.5019883,-0.1518122,-15488.0,14076.5,28033.5,
101.524,1.5461345,3.485535,8.877875,-0.5585189,-1.1431966,-0.24054422,-384.0,12028.5,21121.5,
101.641,2.762389,2.7313614,10.089341,-1.1788435,-0.44106788,-0.31542012,8832.0,19197.5,21121.5,
101.759,3.6458492,-0.496022584,10.929706,-1.4413091,0.3503257,-0.4457203,9088.0,-31490.5,28289.5,
101.876,1.4120592,-1.082602,11.032657,-1.1515312,0.935877,-0.35032672,128.0,-14338.5,-26750.5,
101.992,-1.025238,-1.8511407,10.3335496,-0.14097221,1.3567544,-0.24933746,-14464.0,-1283.5,-17534.5,
102.112,-4.7673756,-0.23266042,9.368687,1.0743631,1.3382354,-0.10371571,30592.0,-3843.5,-14462.5,
102.236,-4.822442,0.5550319,7.8148492,1.6047567,0.43319552,-0.0024599694,16256.0,-24835.5,-19838.5,
102.353,-4.7194916,2.2237906,7.675986,1.5098959,-0.54165744,0.0291158368,14976.0,17404.5,-31102.5,
102.471,-3.5223904,3.9069144,7.62570736,0.99175984,-0.956806,0.036843248,23680.0,-515.5,21120.5,
102.588,-2.0260146,5.3721656,7.855551,0.14094509,-0.734976,0.015925944,-30336.0,-11523.5,10624.5,
102.704,-0.62061804,5.874948,8.063847,-0.9067853,-0.41335576,-0.044827504,-23936.0,-10499.5,11392.5,
102.826,-0.067557452,4.4336384,8.279325,-1.9202754,-0.18992698,-0.12010315,-22656.0,4348.5,25217.5,
102.943,0.34185104,1.2397735,8.947307,-2.1839402,-0.04057476,-0.13715676,-24192.0,31484.5,-23678.5,
103.059,-1.2431104,-1.520741,8.432553,-1.7698574,-0.11251964,0.017791178,-25472.0,-2307.5,-14718.5,
103.176,-0.419505068,-4.745731,7.7430232,-0.5248114,-0.3524691,0.019389954,-24448.0,21244.5,-11133.5,
103.292,-0.31894864,-4.5039164,8.554658,0.93193896,-0.75576,0.15888306,-18816.0,26108.5,-13949.5,
103.413,1.6179604,-3.2349894,10.551422,1.9531564,-0.5473864,0.23935472,-8064.0,9980.5,-17277.5,
103.530,3.1287016,0.897402736,11.233769,2.1588654,-0.116916252,0.23642364,896.0,-16898.5,-26750.5,
103.650,2.999415,4.866989,9.988785,1.399314,0.4747637,0.1574175,4224.0,23037.5,23681.5,
103.763,1.8693516,4.9436036,9.605712,0.07486239,0.9273502,0.0064665236,-128.0,10748.5,15745.5,
103.879,0.27241918,3.26048,8.724647,-0.868015,1.1321266,-0.08706181,-11136.0,12028.5,21633.5,
103.999,-1.757864,1.1966779,7.596977,-1.4984654,0.79878208,-0.14408478,-26496.0,24316.5,-32126.5,
104.116,-2.650901,-0.500811,7.2091165,-1.4618268,-0.15395454,-0.11717207,28544.0,-21251.5,-19070.5,
104.233,-2.3444434,-1.7505844,9.093353,-0.9247716,-0.9188351,-0.036700396,30336.0,1276.5,-13437.5,
104.349,-0.43147618,-1.2885034,11.018291,-0.23250206,-1.1349362,0.03457832,-23168.0,12796.5,-12669.5,
104.468,1.9890618,-1.97085068,12.141172,0.3569129,-0.96213528,0.078544624,-8320.0,13052.5,-19325.5,
104.592,3.55247536,-0.0914025136,11.33672,0.702381536,-0.3231582,0.09453238,4736.0,6141.5,-24701.5,
104.710,2.987444,0.9093738,10.091735,0.6858609,0.7195095,0.065354732,7296.0,-2818.5,-28798.5,
104.825,1.2875607,0.71544344,9.744576,0.55835856,1.3860652,0.035377704,-1664.0,-11011.5,-25726.5,
104.942,-0.881586,0.3515248,9.64402,0.411937416,1.4370929,0.018324104,-18816.0,-17923.5,-21374.5,
105.058,-3.62534136,-0.27575606,9.550646,0.42739224,0.8443472,0.0309810736,30592.0,-24067.5,-21886.5,
105.176,-4.006019,-0.110556132,9.622472,0.4317889,-0.1443619,0.06175749,22144.0,-30467.5,-23678.5,
105.296,-4.2358628,0.70586664,9.409388,0.2809711,-1.1438627,0.064422116,27264.0,27900.5,-28030.5,
105.412,-2.528797,1.73776768,8.784501,-0.0962065,-1.8530526,0.053230688,-23168.0,23036.5,-32382.5,
105.528,0.19101632,2.2381558,8.628878,-0.55771944,-2.0293174,0.013128086,-640.0,25596.5,28545.5,
105.645,3.107154,1.87184284,8.262566,-0.87840708,-1.4713452,-0.026441592,21120.0,-30466.5,18305.5,
105.762,4.5125504,0.906979568,7.18278036,-1.0612004,-0.036844284,-0.06761005,-31616.0,-17410.5,12673.5,
105.887,4.5005792,0.40659144,7.084618,-1.0103061,1.5831143,-0.08559626,29568.0,-3842.5,22657.5,
106.003,2.951531,-0.6636167,7.510786,-0.865084,2.5660944,-0.09252428,7040.0,8957.5,-24189.5,
106.117,0.36579304,-1.4177902,8.03751,-0.3791896,2.8433488,-0.048291516,-28800.0,19196.5,-10621.5,
106.232,-3.1584718,-2.3251928,8.051875,0.30402014,2.2291526,0.026850906,640.0,23036.5,-12669.5,
106.349,-7.5350722,0.59573332,8.518744,0.97310744,0.60040076,0.185929,-22912.0,15099.5,-22909.5,
106.471,-7.403392,-0.40025456,8.796473,1.2492957,-1.3747524,0.21137616,-25472.0,-3844.5,-29054.5,
106.588,-4.6692132,1.4983475,9.6488088,1.1332513,-2.828172,0.23562426,-6272.0,-23300.5,-24958.5,
106.705,0.3011496,3.1503468,9.871469,0.58567092,-3.1812348,0.2012506,30848.0,28156.5,-27774.5,
106.820,3.2891132,3.8662128,9.725423,-0.22330912,-2.3253572,0.16101475,3712.0,24317.5,23425.5,
106.937,7.000126,1.1918895,10.958436,-0.7658267,-0.437470632,0.0030025114,27264.0,31485.5,9601.5,
107.060,6.6745144,-0.4553212,10.989561,-0.8544255,1.5019765,-0.06667743,26240.0,-22274.5,14721.5,
107.176,3.3513624,-1.98282168,10.489173,-0.46872104,2.7642092,-0.0661445,4224.0,-13826.5,-32126.5,
107.294,-0.82173108,-2.0235234,9.078988,0.193038516,2.9984298,-0.008721838,-31360.0,-8963.5,-17278.5,
107.411,-3.9054628,-1.415396,7.34319168,0.7921794,2.1669336,0.06375596,-2176.0,-14596.5,-21374.5,
107.527,-5.9596876,-0.15125756,5.976103,1.1926725,0.65795668,0.16101475,-22400.0,-28932.5,28801.5,
107.644,-5.9357456,1.6276343,5.528387,1.106605,-0.9013818,0.184330216,-25472.0,17403.5,14465.5,
107.767,-4.6835784,3.1000684,5.4996568,0.48668016,-2.402498,0.173272032,-12928.0,5627.5,12673.5,
107.884,-1.9757364,3.99549984,6.9960328,-0.5399998,-3.3305872,0.09533176,16000.0,2812.5,18817.5,
108.002,2.0082154,3.344277,9.280101,-1.4419754,-2.9093098,0.0059335984,-14464.0,12284.5,22657.5,
108.119,14.826771,-4.9707856,19.433312,-1.3990749,-0.96893008,-0.16113838,12160.0,32765.5,21633.5,
108.237,9.753458,-4.441667,13.134766,-0.9011896,1.497047,0.008198529,14464.0,-14594.5,27777.5,
108.358,5.2308108,-4.4703976,11.724581,0.13255152,3.1868186,0.03950787,-9600.0,-5891.5,-23422.5,
108.475,-0.50330216,-3.0913372,8.7174632,1.1653601,3.65352768,0.11078658,10880.0,-12547.5,-19326.5,
108.594,-2.7490636,4.725731,7.240241,1.81552852,2.9023702,0.08027664,-26496.0,32507.5,23169.5,
108.711,-3.50084268,1.1511881,3.3999416,1.79447792,1.4600086,0.209377692,19840.0,10747.5,-15998.5,
108.832,-5.466482,3.7034072,3.1605216,1.0814245,0.16047117,0.1603486,17792.0,-2820.5,14464.5,
108.954,-9.110457,7.10556736,1.8676524,-0.368664368,-1.0891046,0.07468092,20608.0,-6916.5,7040.5,
109.072,-7.839136,4.9579688,0.12227942,-2.8439676,-1.3485058,-0.20257328,24192.0,-260.5,-31871.5,
109.189,-7.0083485,1.7521329,5.6648564,-3.672666,-0.64664364,-0.213098576,26496.0,27643.5,9089.5,
109.310,-7.132847,-2.993175,7.19953968,-2.3564746,-0.4586544,-0.009387994,27776.0,6139.5,-32125.5,
109.425,-6.6899196,-5.351464,7.948925,-0.7219937,-1.3443757,0.17606988,32128.0,30715.5,-26749.5,
109.547,-4.738645,-4.4320904,7.9752608,0.8625255,-2.490564,0.3631266,-16000.0,-31748.5,-18301.5,
109.664,-1.0803049,-2.0522538,8.825203,1.93983332,-3.1629822,0.5190071,18304.0,16892.5,-12925.5,
109.782,4.196516,0.6292522,10.15159,1.969677,-2.966999,0.4848999,-2688.0,-9987.5,-27262.5,
109.895,7.75429936,3.1216162,9.964843,1.1567,-1.6929086,0.370187816,-31104.0,-29442.5,4993.5,
110.012,8.510867,3.3849784,9.064623,0.049814924,0.21389692,0.212175552,-16000.0,31997.5,-16766.5,
110.130,6.219616,1.7712865,9.457272,-0.9145128,1.8136044,0.0733486036,-20096.0,-27138.5,-8830.5,
110.253,4.060046,-0.9341615,9.584165,-1.2911576,2.7546168,0.008598224,25216.0,-14850.5,18817.5,
110.368,0.1622859,-2.0235234,8.978432,-1.0977058,2.7446242,0.015393018,-9088.0,1020.5,-21117.5,
110.485,-2.6173824,-2.7872736,7.426989,-0.493502032,1.8979398,0.07894432,17792.0,15612.5,-10109.5,
110.602,-3.656466,-1.8080452,5.5834536,0.26245198,0.6155891,0.177002492,-2688.0,18171.5,-12925.5,
110.720,-4.046721,-0.8743065,5.1285552,0.8241549,-0.850221,0.25081262,-8832.0,9467.5,-15741.5,
110.841,-2.8711676,0.44250448,5.3129088,0.8787797,-2.287653,0.27865796,6272.0,-5379.5,-15486.5,
110.957,-1.1257946,0.377861032,9.964843,1.1200614,-2.4347404,0.3142307,-26496.0,-18691.5,-19582.5,
111.075,1.979485,3.698619,11.808378,0.9004964,-1.860247,0.37191984,5760.0,-31746.5,27777.5,
111.192,6.6553608,1.5414431,11.928088,0.30375368,-0.803456836,0.15981567,29312.0,26621.5,6017.5,
111.310,6.174126,2.384202,9.361504,-0.42515444,0.90230268,0.08054309,-30592.0,28157.5,-126.5,
111.430,4.28989,1.3379359,7.690351,-1.048277,2.5664942,-0.0293726816,20608.0,-29186.5,17281.5,
111.546,1.2324941,0.387437832,7.699928,-1.1713827,3.2355814,-0.041496724,-12416.0,-14339.5,-23934.5,
111.665,-2.291771,-0.998805,7.596977,-0.88400268,2.8529412,0.003801899,6784.0,2556.5,-14461.5,
111.786,-13.7911216,0.6364348,5.8228736,-0.3436169,1.5398141,0.20831186,-25472.0,11259.5,-23421.5,
111.903,-8.545425,-2.0833784,6.974485,0.3462544,-0.4810372,0.1919244,27776.0,10491.5,-31869.5,
112.019,-7.6547824,-1.87268852,7.2929132,0.8974321,-2.5529164,0.3023731,-29824.0,-260.5,-28030.5,
112.142,-3.0627038,-0.5415124,9.157997,1.1985346,-3.92080136,0.367389984,7552.0,-15363.5,-18814.5,
112.261,5.1230716,0.392226216,8.882664,0.96444744,-3.6721918,0.36579116,-5504.0,-30979.5,31361.5,
112.380,7.842885,1.6731241,8.365516,0.26778124,-1.9082104,0.24761506,-27776.0,27645.5,-4478.5,
112.496,9.229128,2.1040804,8.679156,-0.29765212,0.30023074,0.113451208,-12160.0,30205.5,-22398.5,
112.614,6.5188912,0.55982036,7.6711976,-0.5506583,2.3426656,0.036710016,-18304.0,-28930.5,-13694.5,
112.736,0.9739203,-0.1823822,7.532334,-0.5431973,3.3320408,0.004334824,20096.0,-20738.5,20865.5,
112.850,-2.1936086,-0.12252714,6.3807224,-0.471385668,3.1234008,0.022321042,-19840.0,-14851.5,-21886.5,
112.969,-6.3092412,2.64517,5.5451464,-0.470453032,1.7211418,0.1258417,5504.0,-9987.5,-16766.5,
113.085,-6.02912,1.1535823,6.964908,-0.5829002,0.00912049,0.10385856,-11136.0,-5892.5,-19326.5,
113.199,-5.461694,1.007536,8.810838,-0.710002836,-1.5019883,0.13783252,-8576.0,-772.5,-17022.5,
113.320,-2.957359,0.057037988,10.570576,-0.68482216,-2.5445226,0.170474168,12160.0,9724.5,-11645.5,
113.438,-1.3652148,4.30914,11.183492,-0.46006108,-2.684149,0.3147636,-16256.0,20476.5,-17533.5,
113.552,5.556422,-3.5175052,10.412559,0.24326668,-1.7382072,0.17580342,13696.0,27645.5,-31869.5,
113.669,5.8149964,-2.066619,9.897805,0.78884868,-0.2139086,0.24201934,32384.0,27389.5,18306.5,
113.784,4.349745,-1.1137266,8.858722,1.1874765,1.2826779,0.240553808,31360.0,20989.5,17282.5,
113.908,2.0106096,0.689107236,8.418188,1.3145791,2.3197498,0.224699292,13952.0,6397.5,-32637.5,
114.027,-1.0898816,2.4727876,7.941742,0.90928968,2.3402674,0.177535432,-13952.0,-10243.5,-22654.5,
114.145,-4.4345812,3.86381868,7.5179688,0.17305382,1.5078386,0.1305048,22912.0,-24067.5,-22398.5,
114.263,-6.6923136,3.4065264,7.608948,-0.5801024,0.14754775,0.105324104,8576.0,-25347.5,-23678.5,
114.381,-5.406627,2.1902718,7.585006,-1.1572601,-1.3469071,0.104391484,10112.0,-16899.5,-19070.5,
114.499,-2.2127624,0.703472436,7.869916,-1.3964102,-2.3914402,0.11291829,31616.0,764.5,-13949.5,
114.623,1.9220242,-0.206324184,8.205105,-1.2787671,-2.359198,0.11318475,-640.0,24572.5,-23677.5,
114.741,6.14779,-1.85353484,6.634508,-0.8897318,-1.1248106,0.20498108,24704.0,-22018.5,22658.5,
114.857,6.336932,-2.578978,9.514732,-0.18533822,0.3966902,0.13849868,-31872.0,-11266.5,10882.5,
114.972,4.773518,-2.7776968,10.130043,0.6358992,1.78722452,0.170207716,25728.0,-7938.5,17794.5,
115.090,0.66027988,-1.7266424,10.134831,1.3490859,2.4603088,0.2123088,2432.0,-16898.5,-28797.5,
115.212,-4.2095264,0.28448712,9.37108,1.667775,1.8102735,0.25520924,-31104.0,26108.5,-13181.5,
115.329,-7.087357,2.2956166,9.457272,1.323239,0.25413276,0.27186316,16000.0,1532.5,-14461.5,
115.445,-5.784911,3.6435524,10.079764,0.67680116,-1.1795686,0.25307756,18816.0,-20739.5,-20606.5,
115.562,-2.3612028,3.890155,9.900199,-0.045045732,-2.1469608,0.22842976,-26752.0,-30211.5,-25470.5,
115.677,1.3617809,2.915715,8.882664,-0.6581759,-2.2667356,0.16794278,384.0,-27138.5,31361.5,
115.799,2.918012,1.4073677,7.692745,-1.0683949,-1.3623619,0.0928003664,25216.0,-16130.5,20097.5,
115.917,3.3441798,-0.4553212,7.747812,-1.0934423,-0.1460939,0.0566947,-27776.0,-1026.5,11137.5,
116.031,3.085606,-0.6684051,8.839568,-0.8458987,0.921488064,0.054163308,-28288.0,12029.5,13442.5,
116.147,2.393682,-1.046689,10.496355,-0.46192628,1.7010239,0.06562119,25472.0,22781.5,25218.5,
116.264,0.10721928,-1.4441264,11.219404,-0.04318048,1.90699952,0.09226744,3712.0,28157.5,-24701.5,
116.381,-2.425846,-1.010776,10.668738,0.4211304,1.518364,0.13809898,-22912.0,28156.5,-13181.5,
116.501,-3.421834,0.40419724,8.96646,0.74035248,0.5672262,0.192190868,24704.0,19708.5,-10109.5,
116.617,-3.680408,1.254139,7.29530736,0.6953203,-0.8813971,0.22696422,20864.0,8188.5,-10621.5,
116.733,-1.5495684,1.99155316,8.154826,0.4709589,-1.754195,0.23189378,-29824.0,-2051.5,-14462.5,
116.850,1.3019259,2.4320862,9.014344,0.14027894,-1.6116376,0.189792708,-3968.0,-7427.5,-24190.5,
116.968,3.856539,1.8909964,9.890622,-0.014402524,-0.71845528,0.13130419,14720.0,-7938.5,29825.5,
117.091,4.1007476,2.702631,9.62726,0.20569548,0.57601948,0.09852931,21376.0,-6914.5,25729.5,
117.205,2.4702964,3.0904916,9.203486,0.536109,1.6276136,0.07827816,13184.0,-9474.5,31105.5,
117.320,-0.067557452,3.0162714,8.408611,0.43538612,1.89873908,0.05429654,-6784.0,-16899.5,-26494.5,
117.437,-3.1225588,3.9093086,7.5658532,-0.050641432,1.1394544,-0.0223114224,-28800.0,-22019.5,-21886.5,
117.557,-4.3076888,3.78481,7.807667,-0.4916368,-0.07215056,-0.062014332,23424.0,-20227.5,-19582.5,
117.678,-3.8863092,2.9133208,8.60733,-0.712401,-1.1920924,-0.06747682,25728.0,-12547.5,-16766.5,
117.792,-1.7027972,1.8670545,9.220246,-0.7173305,-1.75086432,-0.050822908,-24192.0,-2051.5,-17278.5,
117.910,1.3162911,0.8207883,9.576982,-0.70600592,-1.6683941,-0.056685084,384.0,9469.5,-24445.5,
118.027,2.8509744,0.22942052,9.655991,-0.5996874,-0.8968519,-0.0470924336,18816.0,18941.5,29826.5,
118.143,3.6458492,-1.0849962,10.668738,-0.2615465,0.14301789,-0.062014332,27264.0,25853.5,22658.5,
118.268,1.72330544,-1.6955176,11.185885,0.248995632,0.93374532,-0.04456104,23424.0,27389.5,26498.5,
118.388,-0.62061804,-1.7314308,11.092511,0.63443356,1.2303181,-0.023244042,11392.0,23293.5,-30845.5,
118.507,-0.8408846,-1.4704628,11.18828,0.91874904,1.1421189,-0.010853537,-4480.0,12284.5,-21629.5,
118.623,-1.5663278,0.0043655484,10.067793,0.963648,0.8003808,-0.014584012,-18304.0,-2051.5,-17790.5,
118.739,-0.66131944,3.188654,8.425371,0.5953968,0.364048536,-0.0522884536,-26752.0,-15875.5,-18814.5,
118.863,0.25805396,3.1742888,4.841251,0.00185167792,-0.08827154,-0.12823026,-30848.0,-23555.5,-21630.5,
118.980,-0.031644464,3.701013,3.50768068,0.5763448,-0.3089025,-0.12223485,-29568.0,-24579.5,-21630.5,
119.097,-0.237545784,5.49427,6.191581,0.24113498,-0.2574752,-0.170864268,-25472.0,32252.5,-27006.5,
119.214,-0.7546933,7.512582,9.497973,-1.1194224,-0.27559464,-0.30755952,-23680.0,32252.5,-27774.5,
119.329,-1.7961712,4.9459976,13.352638,-1.8515282,-0.46345072,-0.33673712,-23936.0,-15107.5,-20606.5,
119.448,-1.793777,-0.84318184,13.891334,-1.85259384,-0.7900005,-0.32021644,-19840.0,11004.5,-17277.5,
119.571,-0.73314552,-4.819951,11.657543,-1.2998177,-1.124944,-0.2835779,-8832.0,-26627.5,-21373.5,
119.687,0.94040148,-4.891777,8.638454,0.32333866,-0.9738596,-0.13489182,4736.0,-12034.5,-31613.5,
119.802,1.9699082,-2.744178,7.99920236,1.6006266,-0.52393764,-0.02710775,16512.0,-18690.5,27522.5,
119.920,2.8557628,-0.61573268,8.466072,1.9968562,0.200707,-0.0009944253,22400.0,23549.5,24450.5,
120.035,3.2915076,1.8838138,8.53311,1.5690507,1.0116855,-0.06747682,20096.0,-1282.5,24449.5,
120.172,0.89491165,4.273227,9.172362,0.5102621,1.5236932,-0.17539412,4736.0,-23042.5,28033.5,
120.289,-1.721951,3.78720416,8.734223,-0.47151888,1.2542996,-0.27545076,-12928.0,-28419.5,-30334.5,
120.406,-3.3476138,2.4320862,7.297702,-1.406136,0.280779,-0.303829,-29056.0,-20995.5,-22398.5,
120.519,-3.2111444,0.241391508,8.81802,-1.5021958,-0.722319,-0.27625016,32384.0,-1027.5,-16254.5,
120.635,-1.66449,-2.0450712,9.426147,-1.0825174,-1.3908734,-0.20870194,-24192.0,20476.5,-14973.5,
120.757,0.080883024,-2.8495228,10.041457,-0.2932555,-1.5301001,-0.14914757,-3968.0,-30211.5,-23677.5,
120.874,2.3912876,-2.5286998,10.161167,0.6228425,-1.0132961,-0.057218008,15232.0,-28674.5,31106.5,
120.992,4.0169508,-1.130486,10.201869,1.2840691,-0.098796816,-0.00698983136,27008.0,26365.5,22658.5,
121.110,3.9092112,0.42335084,9.794854,1.3869236,0.9742476,-0.032303764,27008.0,9725.5,22146.5,
121.227,1.7711894,2.1184456,9.217852,1.0188058,1.695828,-0.09119197,15232.0,-7938.5,28289.5,
121.349,1.8885052,1.3355417,7.675986,0.29935704,1.77416784,-0.21243242,-6528.0,-22019.5,-29310.5,
121.467,-3.1536834,4.002682,7.276154,-0.7230595,1.0062231,-0.22362382,-27776.0,-26115.5,-23678.5,
121.583,-3.1919908,2.8319178,8.614512,-1.672332,0.15514192,-0.2897065,23936.0,-13059.5,-16510.5,
121.698,-2.56471,0.4999653,10.268907,-1.9682388,-0.51194684,-0.2837111,20864.0,14588.5,-12157.5,
121.814,-1.2909946,-2.8950126,10.776477,-1.4855419,-1.0179591,-0.219893336,27520.0,-22275.5,-12925.5,
121.939,-0.65413684,-4.628415,9.876257,-0.34041936,-1.1806345,-0.113441592,-22912.0,-3075.5,-23165.5,
122.057,0.3011496,-3.6420036,7.84358032,0.9627154,-0.8856605,0.01912349,-8320.0,-771.5,-28285.5,
122.172,1.172639,-1.85832332,7.1468668,2.0000536,-0.37311996,0.11651554,2688.0,-16386.5,-27773.5,
122.290,1.8885052,0.4712349,8.011174,2.2787736,0.32954162,0.12797341,7552.0,22269.5,-27773.5,
122.406,1.9938502,3.1742888,9.337562,1.674037,0.95066568,0.0443042,4224.0,-9218.5,-29822.5,
122.520,-1.0779107,5.6929884,10.441289,0.6606802,1.0535202,-0.033502848,-5504.0,-30211.5,32129.5,
122.643,-2.2007912,5.5613076,10.968013,-0.5589186,0.813171,-0.13915522,-19072.0,28924.5,-32126.5,
122.759,-3.421834,3.7465028,10.21384,-1.5733414,0.09945127,-0.20164068,-30336.0,-26371.5,-23678.5,
122.874,-3.0818574,0.698684036,9.442906,-2.0313902,-0.81518116,-0.21589642,-31616.0,-2563.5,-15998.5,
122.992,-1.2550814,-1.6859408,9.320803,-1.6023858,-1.5123804,-0.14368509,-21120.0,27388.5,-15997.5,
123.110,0.3226974,-3.1990762,9.670356,-0.57570576,-1.4117907,-0.039365024,-2688.0,-16643.5,-26493.5,
123.237,3.1502496,-4.166334,10.503538,0.72529736,-0.6768871,0.057094396,14976.0,-11010.5,25986.5,
123.354,3.3034784,-2.353923,10.572969,1.6421946,0.0797330436,0.11611583,21120.0,-21506.5,23170.5,
123.472,1.682604,0.9141622,9.684721,1.9532896,0.6389046,0.13037157,18304.0,23549.5,25474.5,
123.589,0.03299904,3.6674944,8.1524312,1.4476771,0.769471168,0.097996384,12160.0,-2.5,28289.5,
123.707,-0.026856006,5.3314644,7.204328,0.62004464,0.32754314,0.03857525,4736.0,-18690.5,28289.5,
123.829,0.119190268,7.124721,4.5467644,1.158965,-1.0688535,0.13143742,5248.0,-26882.5,25217.5,
123.947,1.955543,8.015365,0.8740588,2.6797996,-1.7479332,0.2882506,22912.0,19453.5,1921.5,
124.061,4.1797568,8.372101,2.5092986,1.6449926,-0.35859776,0.15941598,-25984.0,253.5,26497.5,
124.178,4.127084,9.94988,2.229177,-0.30111616,0.97158296,-0.063080184,-22144.0,-5890.5,9856.5,
124.293,4.115113,9.667364,2.5116928,-2.0011468,1.74285852,-0.2717203,-29568.0,-3330.5,29312.5,
124.409,2.3218558,5.6355276,2.822939,-3.4670904,2.2992322,-0.42253808,17024.0,14333.5,5249.5,
124.532,0.92603624,4.1487284,8.097365,-3.2048912,2.1650684,-0.3467295,-18304.0,-8195.5,-20862.5,
124.648,-3.421834,-2.2773088,10.4053752,-2.5460628,1.1034819,-0.27225322,21120.0,-30979.5,-12669.5,
124.767,-5.602952,-3.4241312,9.2585532,-2.0706936,0.28664118,-0.2093681,5248.0,8188.5,-23676.5,
124.883,-1.9589768,-4.4464556,8.238624,-0.8526935,-0.8631444,-0.1279638,4992.0,-32003.5,27011.5,
124.997,-0.675684736,-2.7776968,7.1947512,0.4288578,-1.2003528,0.021921348,14720.0,-24579.5,21379.5,
125.120,1.0218043,-4.130421,9.275312,1.5310798,-0.8694063,0.12650786,27520.0,32508.5,27011.5,
125.236,0.4208597,-3.8455108,12.725357,2.3560476,-0.70020264,0.191657932,-29056.0,9980.5,-28540.5,
125.354,0.4280423,1.4600401,12.883374,2.3725684,-0.6795517,0.17407142,-19328.0,-23043.5,-20349.5,
125.471,0.2987554,5.1590816,11.992731,1.4852483,-0.365525784,0.08840374,-9856.0,9212.5,-23677.5,
125.588,0.4495901,6.1694344,7.829215,-0.23636578,-0.117982104,-0.097853532,-3200.0,-8451.5,-28798.5,
125.712,0.23171776,3.3634304,8.193133,-1.4583628,0.014582971,-0.216162892,-2688.0,-2307.5,-28798.5,
125.830,0.4112829,1.2134373,8.973643,-2.0492432,0.11264116,-0.2798474,-5248.0,21244.5,-24445.5,
125.945,-0.9222875,3.1120394,9.696692,-1.904954,0.13395816,-0.195112352,-7808.0,-17155.5,-26749.5,
126.061,-0.61104124,-3.970009,10.841121,-0.98525864,0.24240838,-0.183388,-10112.0,5372.5,-32892.5,
126.177,-0.9534121,-5.3586464,11.659938,0.19317174,0.22695356,-0.070141432,-12416.0,15356.5,28803.5,
126.301,-0.59188768,-4.250131,11.671908,1.4479436,0.03483412,0.043504808,-14464.0,9468.5,-32636.5,
126.417,-0.29979504,-1.3483584,10.769295,2.1200952,-0.14676006,0.09733023,-13696.0,-12803.5,-24701.5,
126.534,-0.69244416,2.1567528,9.232217,1.90319468,-0.2871858,0.07894432,-10624.0,23804.5,-21373.5,
126.651,-0.1441719,3.96676936,6.6536616,0.87584868,-0.52247216,-0.024576354,-3456.0,-4099.5,-27774.5,
126.769,0.25565976,4.239708,6.047929,-0.510156,-0.67262376,-0.16100516,3712.0,-12802.5,31105.5,
126.889,1.0888419,3.7034072,7.084618,-1.6961806,-0.41375548,-0.28717512,11136.0,-3842.5,30081.5,
127.007,2.2691834,1.4408865,8.722252,-2.339421,0.24360748,-0.36498216,12928.0,19197.5,30594.5,
127.123,-0.060374856,-1.3818772,10.388617,-2.0910778,0.8025126,-0.3852333,7808.0,-17410.5,31874.5,
127.240,0.25565976,-5.9763504,11.14279,-0.9518176,0.9642553,-0.24973716,-2688.0,5116.5,28803.5,
127.355,-2.0738986,-6.6993996,10.704651,0.63416716,0.726837168,-0.12063608,-12160.0,12540.5,29059.5,
127.474,-3.25424,-3.8790296,9.632049,2.0821242,0.0797330436,0.02218781,-19584.0,-3.5,-25725.5,
127.596,-4.915816,-1.154428,8.786896,2.7241656,-0.8480893,0.106389952,-17536.0,30204.5,-20093.5,
127.711,-1.0779107,4.02423,8.030328,2.1180966,-1.0844416,0.0698846,-4224.0,-4867.5,-26238.5,
127.825,1.2300999,5.791151,8.05427,1.005749,-0.9249637,-0.04016441,11392.0,32765.5,20353.5,
127.939,2.8773104,5.2524556,7.383893,-0.11272721,-0.50981516,-0.16113838,21632.0,21501.5,5761.5,
128.056,2.8413976,3.322729,6.3543864,-1.0197655,0.1763257,-0.2635932,24960.0,23805.5,4481.5,
128.178,2.405653,1.6084807,5.4445896,-1.5438972,0.922021,-0.32754418,18560.0,-31490.5,16257.5,
128.294,1.3617809,0.12886404,6.4597316,-1.7201622,1.536217,-0.34952732,2944.0,-11522.5,-29566.5,
128.411,0.7153465,0.06900899,7.486844,-1.7734546,1.69756,-0.354323636,-19072.0,11772.5,-16253.5,
128.527,-1.4490118,-0.859941264,9.124477,-1.5300411,1.2612276,-0.3131552,24192.0,-28163.5,-10621.5,
128.644,-4.7649812,-3.112885,11.324749,-0.65684352,0.18538542,-0.184720308,10368.0,-7427.5,-17021.5,
128.769,-5.880679,-3.77129068,12.665503,0.45310588,-1.0733834,-0.02710775,12416.0,1532.5,-19580.5,
128.887,-4.044327,-3.60130216,12.093288,1.3979819,-2.0281184,0.08840374,29824.0,-6659.5,-16253.5,
129.004,-0.1369893,-0.9365557,10.340733,2.0317628,-2.357999,0.16461201,-7296.0,-28163.5,-19837.5,
129.120,3.01378,1.1296404,8.020751,2.0794596,-1.68065132,0.1568846,22144.0,11261.5,27778.5,
129.236,-1.0276322,3.8398766,4.142144,1.3665392,-0.35140324,0.037909096,-26240.0,-10754.5,6273.5,
129.354,5.5085384,5.422444,7.8483688,0.49041064,1.015416,-0.08026701,-24448.0,-24578.5,-3198.5,
129.475,3.983432,5.293157,7.910618,-0.5803688,2.1358908,-0.212299168,29824.0,-29186.5,7809.5,
129.593,-1.7530756,8.850941,7.1851748,-1.5597518,2.5867452,-0.27158708,4224.0,-20738.5,31617.5,
129.710,-2.6772372,2.1974544,8.111731,-1.8539262,1.8366534,-0.3172854,32384.0,2812.5,-14205.5,
129.826,-4.360361,0.68192468,8.092577,-1.0614668,-0.11385195,-0.21909398,10624.0,28156.5,-11133.5,
129.942,-4.27417,-0.0363358768,8.48762,-0.45646376,-1.6663956,-0.16660086,14208.0,-22531.5,-12157.5,
130.064,-2.006861,-0.5439066,9.409388,-0.038517384,-2.5136132,-0.105314488,-24704.0,-15619.5,-15741.5,
130.180,3.2579888,-6.5677184,8.269748,0.45563728,-2.4844354,-0.22242476,8064.0,-16386.5,-29309.5,
130.296,7.000126,-1.4058192,9.093353,0.7094428,-1.3819469,-0.06694389,-30592.0,-22530.5,13698.5,
130.411,6.4255176,0.5047537,10.347915,0.8609267,0.12276674,-0.102116936,-19072.0,-31234.5,-1149.5,
130.529,5.4606544,1.81917036,10.036669,0.7158379,1.67864116,-0.17073104,-22912.0,24573.5,4226.5,
130.655,2.3314326,2.111263,9.615289,0.22341522,2.7754006,-0.24813838,19072.0,13821.5,27010.5,
130.772,-1.0563629,1.5007417,9.217852,-0.18547146,2.843615,-0.29117206,-16256.0,10236.5,-18813.5,
130.889,-3.62534136,0.19111328,8.408611,-0.40010696,1.9629566,-0.28437724,12672.0,12028.5,-13437.5,
131.007,-6.565421,-0.6300979,7.9848376,-0.4472708,0.4177407,-0.2649255,-9088.0,18427.5,-13693.5,
131.122,-5.672384,0.042672776,8.03751,-0.29432136,-1.2002195,-0.1795243,-11136.0,24827.5,-14717.5,
131.243,-3.92222216,0.203084284,8.078212,-0.13337802,-2.5892884,-0.122634544,8320.0,30716.5,-10877.5,
131.363,-0.69962668,0.24617992,7.965684,-0.01453577,-3.2265334,-0.091858132,-18048.0,-32515.5,-15485.5,
131.479,1.2157347,4.376178,8.877875,0.09005076,-2.7032012,-0.039365024,22400.0,32509.5,27266.5,
131.595,5.50375,1.3092055,9.138844,0.2787062,-1.2864202,-0.09532215,-16000.0,30973.5,-637.5,
131.710,8.252294,0.79684632,10.61846,0.2997567,0.43346196,-0.1566085,-6272.0,26109.5,-15485.5,
131.824,7.036039,1.0171128,10.841121,0.19477052,2.1318938,-0.233349716,-14464.0,22781.5,-6013.5,
131.948,1.601201,1.2110431,9.852315,0.1107016,3.1636368,-0.28171262,24704.0,17917.5,23938.5,
132.064,-5.9309572,0.32518858,7.5371224,0.16239533,2.707719,-0.22642168,-14208.0,14332.5,-18557.5,
132.181,-4.640483,1.1799185,6.110178,0.16039684,1.0572506,-0.246806068,17792.0,11260.5,-12413.5,
132.299,-6.55345,0.7800869,7.374316,0.5598241,-1.062192,-0.16526854,9600.0,6140.5,-13437.5,
132.413,-4.480071,2.7816396,9.720634,0.5305132,-2.4352732,-0.16660086,25216.0,-2563.5,-14974.5,
132.534,0.6123958,4.9771224,11.087723,0.2897644,-2.8197784,-0.20164068,-5248.0,-11011.5,-24190.5,
132.650,4.6609908,5.740873,10.582546,0.03382717,-1.99081368,-0.22881986,26240.0,-15106.5,18561.5,
132.768,6.67212,4.7616444,10.704651,-0.018799156,-0.10985501,-0.3344722,-22912.0,-17154.5,-894.5,
132.884,3.4088232,3.3418828,9.409388,0.37902932,1.4530806,-0.34326548,-26240.0,-21250.5,385.5,
133.000,0.4448017,2.9731758,6.2227052,0.56648564,2.3525248,-0.36458248,22400.0,-28674.5,15233.5,
133.122,-1.3747916,2.2357616,4.3743816,0.8256204,2.1035156,-0.35085964,-6272.0,26876.5,27009.5,
133.238,-2.267829,2.5757382,3.2898082,0.7777904,1.1084114,-0.3445978,-29312.0,14332.5,25729.5,
133.353,-3.62534136,3.91888536,4.3959292,0.067268216,0.043094456,-0.4018872,24192.0,5884.5,20097.5,
133.471,-4.2334684,5.558913,5.018422,-1.1112955,-1.0371446,-0.50167748,22656.0,7164.5,21889.5,
133.587,-2.8591966,4.170276,8.267354,-2.061101,-1.9665656,-0.574555,29056.0,23036.5,-30334.5,
133.701,0.5453582,1.1368229,9.852315,-2.2721392,-1.9639008,-0.5806835,-17536.0,-12803.5,-20606.5,
133.823,6.588323,-2.224636,11.420517,-2.019133,-1.216074,-0.56895924,4736.0,20477.5,-24957.5,
133.938,6.5476216,-3.9364904,10.307214,-1.0895786,0.13449108,-0.53764988,17280.0,-23042.5,31618.5,
134.056,4.3090432,-2.8447344,9.14842,0.052879244,1.5901755,-0.461441568,13952.0,-13826.5,-32381.5,
134.173,1.2253115,-2.7729084,9.632049,0.932738368,2.4184742,-0.39855644,-9856.0,-20227.5,-19837.5,
134.291,-2.0523508,-2.0235234,9.943295,1.5448026,2.1710636,-0.33713684,25728.0,28156.5,-12925.5,
134.414,-3.4840832,-3.8550876,9.596135,2.00938,0.8479444,-0.336337416,-1920.0,-260.5,-17022.5,
134.529,-6.766534,0.98119984,8.9640664,1.9233126,-0.9778566,-0.2021736,-7808.0,32507.5,-30590.5,
134.650,-4.4848596,2.9109266,8.808443,1.5082973,-2.0890052,-0.2039056,5504.0,8956.5,23169.5,
134.766,-0.75229912,4.546166,7.915406,0.6128501,-2.5784964,-0.2707877,27520.0,-7171.5,11136.5,
134.880,2.3505862,4.8143168,6.742247,-0.65551124,-2.3929056,-0.40375244,-15488.0,-10499.5,3968.5,
135.002,4.1582084,3.0641554,7.0894068,-1.76266284,-1.285754,-0.5577678,128.0,-2818.5,4480.5,
135.119,4.31862,-1.0442948,8.650426,-2.2357672,0.065477304,-0.64090408,5504.0,15357.5,18049.5,
135.235,4.6466256,-1.6308742,9.720634,-1.96610684,1.3251786,-0.646633,-2432.0,-25859.5,-29310.5,
135.351,2.9802614,-3.9388844,10.443683,-1.0862478,2.2082352,-0.58827776,-24960.0,-2051.5,-15230.5,
135.469,-0.31894864,-4.379418,10.431712,0.07099868,2.4285996,-0.48355796,9344.0,10236.5,-12925.5,
135.592,-3.3045182,-2.756149,9.277707,0.9741733,1.8755568,-0.3900296,-24448.0,7931.5,-23421.5,
135.706,-3.457747,-2.804033,7.4030468,1.5300139,0.6712798,-0.30982444,22144.0,-2052.5,26241.5,
135.821,-4.592599,0.444898668,7.312067,1.6788332,-0.7854706,-0.26385966,20096.0,-16388.5,17281.5,
135.937,-3.1560776,1.3858199,7.9201944,1.4296908,-1.85185336,-0.25160238,29056.0,-30468.5,17793.5,
136.055,-0.68047316,3.2317496,9.426147,0.6568165,-2.2644708,-0.32088262,-16512.0,23547.5,25217.5,
136.171,4.232429,5.0034584,10.450866,-0.32309932,-1.8165473,-0.460642216,1920.0,18684.5,30337.5,
136.295,5.302637,4.4958876,11.090117,-1.2713062,-0.6547708,-0.55163916,16768.0,24572.5,-27006.5,
136.412,5.929918,0.66755944,10.21384,-1.8687148,0.5167315,-0.64703276,18304.0,-22019.5,-18558.5,
136.527,2.7073224,-1.4584918,8.162009,-1.8557916,1.4950485,-0.6602226,8576.0,5884.5,-13437.5,
136.643,0.021027982,-4.235766,6.095813,-0.91211452,2.1131082,-0.5702915,-12928.0,32251.5,-19069.5,
136.759,-1.4442234,-3.634821,5.9832852,0.26751476,1.890079,-0.4393252,28288.0,-17668.5,31106.5,
136.880,-4.0874224,-3.7832616,7.62570736,1.344556,0.92162132,-0.31502048,12672.0,-17156.5,15490.5,
136.997,-5.720268,-2.5478534,9.780489,2.0598746,-0.32928688,-0.21802812,7040.0,-29188.5,11138.5,
137.114,-4.3866972,0.902191168,11.408546,2.1117016,-1.3041398,-0.2114998,11648.0,17147.5,19330.5,
137.232,-0.15853715,5.0896496,11.631207,1.2507613,-1.6526729,-0.28251204,25472.0,-6404.5,29825.5,
137.351,3.212499,4.9771224,10.936889,-0.35574096,-1.0423405,-0.47636348,-23680.0,-17412.5,-27518.5,
137.474,3.58599432,4.900508,10.762112,-1.9613106,-0.030715652,-0.63211084,-15744.0,-5892.5,-21118.5,
137.592,1.9986386,0.99077668,9.2585532,-2.6413228,0.6834038,-0.70312308,-18304.0,26107.5,-19325.5,
137.708,0.27481338,-2.6795344,8.094971,-2.420159,0.999828032,-0.6943298,-26240.0,-1028.5,32130.5,
137.825,-0.60385864,-4.4608208,6.3711456,-1.2860948,0.827826436,-0.5808168,-32384.0,32251.5,3715.5,
137.942,-1.154525,-5.3610408,6.3711456,0.06580267,0.40614956,-0.45278156,-32384.0,-20996.5,-13692.5,
138.064,-1.4107046,-5.5166636,7.285731,1.4154351,-0.06309084,-0.32541248,-29824.0,-20484.5,-11388.5,
138.181,-1.0443919,-4.1735168,8.181163,2.5091302,-0.40429604,-0.22961924,-27520.0,32251.5,7043.5,
138.298,0.38973504,-1.99718684,8.4708608,2.6462252,-0.7730801,-0.23747988,-20352.0,3323.5,31619.5,
138.416,3.0018092,-0.6109443,7.8148492,-0.20039334,-2.2355594,-0.65076316,-3968.0,-26372.5,-16509.5,
138.533,5.0009676,0.04506698,8.085394,-1.4313168,-2.1181826,-0.8340894,28032.0,-17923.5,-17789.5,
138.653,7.5531864,-2.365894,8.468467,-1.1252847,-0.5107478,-0.84195008,-11136.0,2300.5,-31868.5,
138.768,7.833308,-2.7944562,7.783725,-0.53680224,1.3173181,-0.8282272,-2432.0,15100.5,24963.5,
138.884,4.627472,-1.7960742,9.938506,-0.17108248,2.696661,-0.8179684,-17792.0,18428.5,30083.5,
138.999,0.81590296,-1.0083818,9.876257,-0.012137607,3.0126856,-0.80704344,18560.0,18940.5,-27516.5,
139.116,-4.67879,-1.2166774,9.287284,0.25672304,2.3749078,-0.70259016,-10112.0,18171.5,-32124.5,
139.232,-6.000389,-0.6612225,8.882664,0.42912428,0.643168,-0.6359745,-27520.0,17659.5,23939.5,
139.351,-5.198332,-0.493628384,8.683945,0.7591381,-1.0083665,-0.5443114,-28544.0,15099.5,26243.5,
139.467,-3.6181588,-0.002817057,8.961672,0.9545883,-1.93232516,-0.490486,-12160.0,8443.5,-27516.5,
139.583,0.33466844,0.5550319,8.516351,0.93193896,-2.0247876,-0.47409856,14464.0,-3331.5,-20861.5,
139.699,3.1502496,-0.52714724,6.8092848,0.7491457,-1.2993436,-0.5589669,-24704.0,-14595.5,-20349.5,
139.816,5.625854,-0.855152832,7.321644,0.28829884,-0.013795279,-0.6082625,-9344.0,-26371.5,-23677.5,
139.938,3.5836,2.0083124,9.948083,-0.12618356,0.91975608,-0.6297127,-10880.0,31996.5,-22653.5,
140.053,1.5676823,2.0298602,10.889005,-0.5495924,1.3371694,-0.6666177,-23424.0,30972.5,-18557.5,
140.170,-1.178467,1.2397735,10.9943496,-0.9102494,1.2983991,-0.693397168,25472.0,-28931.5,-14973.5,
140.288,-3.1465008,0.57418556,10.024697,-1.0171008,0.78585864,-0.6795412,9344.0,-14339.5,-16253.5,
140.406,-3.5702748,-1.0993614,9.667962,-0.7393137,-0.233893292,-0.631045,6016.0,-3.5,-22141.5,
140.528,-3.40507468,-2.2964624,10.872245,-0.061566396,-1.2733635,-0.53898216,15744.0,11260.5,-26492.5,
140.647,-1.9086986,-1.9469087,12.414111,0.6220431,-1.81721332,-0.5324539,-29056.0,11260.5,-28028.5,
140.766,0.5142335,-1.0562658,11.664726,0.99349176,-1.7604568,-0.43399596,-3712.0,1276.5,32387.5,
140.882,2.8653396,1.1631591,10.182715,0.9148854,-1.1370679,-0.468502816,20352.0,-15106.5,22658.5,
141.000,3.736829,2.7313614,7.9058296,0.33133252,-0.13383664,-0.5453773,-32640.0,-28674.5,14978.5,
141.123,2.7599948,3.3730072,5.5355696,-0.60874708,0.89417565,-0.6615549,32384.0,28925.5,16770.5,
141.241,1.3186853,3.95240416,5.4876856,-0.96727232,1.2062031,-0.735897968,22400.0,32253.5,25730.5,
141.361,1.2468593,1.3092055,7.77893636,-0.12698294,0.89350948,-0.6799408,7552.0,-26626.5,-29053.5,
141.479,1.3354447,0.42335084,9.390234,0.48121768,1.019413,-0.6274477,-2688.0,-31235.5,-22141.5,
141.594,1.2037637,1.98915884,9.904987,0.52878124,1.169831,-0.6298459,-16000.0,26108.5,-16765.5,
141.711,0.22692934,2.1160514,9.526704,0.1878425,1.0688417,-0.66208784,-32384.0,17916.5,-13181.5,
141.836,-1.2718408,1.69467184,8.712675,-0.376658268,0.769604436,-0.6945963,16256.0,15356.5,-12669.5,
141.956,-3.41943968,0.8183941,9.349533,-0.76862456,-0.14596068,-0.7207096,7296.0,22780.5,-13693.5,
142.072,-3.764205,-1.1256976,11.17152,-0.6066154,-1.1341368,-0.67927468,10624.0,32252.5,-12413.5,
142.187,-2.339655,-0.4744748,12.155538,-0.054238676,-1.8012256,-0.57975096,27776.0,-27139.5,-13949.5,
142.304,0.79674936,-2.9883866,12.347074,0.6889252,-1.71902192,-0.55883368,-10880.0,-29443.5,-19837.5,
142.428,2.963502,-0.7929036,10.9321,1.2341074,-0.9589377,-0.52299448,13440.0,23805.5,-30845.5,
142.542,1.7807662,1.5605967,9.541069,1.1678915,-0.039642148,-0.55017364,22912.0,5885.5,26754.5,
142.659,0.6507031,2.9947236,9.069411,0.54849948,0.385631968,-0.6210526,20352.0,-12546.5,21889.5,
142.776,-0.7666643,3.6818596,9.766124,-0.3265633,0.456511016,-0.69952584,12160.0,-25602.5,21889.5,
142.892,-1.1593134,2.6355932,10.809996,-0.979662864,0.3789704,-0.75015368,3968.0,-26114.5,28545.5,
143.017,-1.439435,-0.237448816,10.972801,-1.1095635,0.12703014,-0.746423236,-896.0,-16387.5,-27262.5,
143.136,-3.644495,-0.5798197,9.299254,-0.6992111,-0.16834352,-0.68273864,-3712.0,-4867.5,-22910.5,
143.251,0.69140448,-2.270126,9.332773,0.06353774,-0.14169728,-0.6191874,-3968.0,1788.5,-21885.5,
143.365,1.2851665,-0.81445144,9.38784,0.64136168,0.2458724,-0.5664278,-3968.0,-1539.5,-22654.5,
143.482,1.421636,0.57657976,10.098918,0.7811212,0.696194,-0.56269736,-10880.0,-13827.5,-24190.5,
143.603,0.530993,1.6635473,10.587335,0.6065883,0.9126948,-0.5822823,-23168.0,-26371.5,-25982.5,
143.718,-1.616606,1.0841506,10.582546,0.38302624,0.86646352,-0.59573864,28288.0,29692.5,-27774.5,
143.835,-2.0475624,0.98119984,9.327985,0.13135244,0.48075908,-0.6043987,14720.0,25084.5,-30846.5,
143.951,-2.4090868,0.25815094,7.862734,0.007847086,-0.20338334,-0.5954722,6016.0,24316.5,-32126.5,
144.066,-1.8823624,0.092951016,7.16362668,0.06247189,-0.864609968,-0.5676269,6272.0,24828.5,-31358.5,
144.189,-1.0467861,0.6412232,7.1732036,0.0021181404,-1.3659592,-0.55630224,13696.0,25340.5,-29566.5,
144.307,0.049758436,1.2014663,8.334392,-0.23303502,-1.4673481,-0.5773528,27776.0,25852.5,-28798.5,
144.423,1.5628939,1.4863763,9.821191,-0.47178536,-1.0913696,-0.60466516,-24704.0,27900.5,-29310.5,
144.541,4.450301,1.3068113,11.063781,-0.6146093,-0.30517204,-0.64756568,-15488.0,-32003.5,-29310.5,
144.657,3.607542,0.19111328,11.499526,-0.6088803,0.6049306,-0.62771416,-16000.0,-26115.5,-25982.5,
144.773,1.9052648,-0.6636167,10.786054,-0.39917432,1.6390715,-0.59014296,-29056.0,-18691.5,-20350.5,
144.896,1.69696932,-1.259773,6.9170236,-0.035453068,2.9621908,-0.56069884,10368.0,-14083.5,-17022.5,
145.015,-5.3515608,-0.6851645,4.960961,0.428991016,3.1643026,-0.29570192,-28032.0,-17156.5,31873.5,
145.133,-8.564579,-1.0514774,2.253119,0.6462912,2.3593196,-0.18512,9344.0,-21764.5,129.5,
145.247,-10.307558,-0.06506631,2.43029,0.3325316,0.58721084,-0.13462536,-2176.0,-24581.5,-30078.5,
145.362,-9.582115,-0.3523705,2.8803996,-0.04011616,-1.1737065,-0.111176652,-4224.0,-24837.5,29057.5,
145.485,-7.879838,-0.62052108,3.1246082,-0.07875322,-2.8255074,-0.05428692,2688.0,-21508.5,-14974.5,
145.601,-4.4848596,-0.69474136,3.85005152,0.11922839,-4.2043176,0.001004043,25472.0,-18692.5,21889.5,
145.719,1.649085,-0.6109443,9.430936,0.3559803,-3.4137232,0.027250596,9344.0,-19715.5,-19070.5,
145.834,13.3878568,-2.5502476,15.943165,0.6706725,-2.0123972,0.0044680556,-15232.0,-24835.5,-24702.5,
145.952,11.125336,-0.4840516,13.505867,0.8136296,-0.09932974,-0.020979112,6784.0,30717.5,27521.5,
146.080,6.2267984,1.85029508,8.968855,0.6787996,2.4099474,-0.07213991,3200.0,20221.5,24193.5,
