# epoch_start_s=1609460164
timestamp_s,accel_x,accel_y,accel_z,gyro_x,gyro_y,gyro_z,mag_x,mag_y,mag_z,wind_vane_deg
# wind_vane_deg is blank for the first 270 s, populated for the final 30 s
0.109,-1.5759046,0.21026689,9.742182,0.000919044,-0.0011383183,-0.0012608878,31360.0,-16387.5,-18301.5,
0.227,-1.5280206,0.14562344,9.667962,-0.0062754304,-0.0022041648,0.00073758052,30336.0,-15363.5,-18813.5,
0.345,-1.5136554,0.195901692,9.691904,-0.0025449544,0.0021924674,-0.0012608878,29824.0,-15875.5,-18045.5,
0.464,-1.5160496,0.193507484,9.67275,-0.0092065184,0.0041909368,0.000337886632,30592.0,-15619.5,-17021.5,
0.588,-1.496896,0.171959668,9.6105,-0.0049431176,0.0027253888,-6.180722e-05,30336.0,-16131.5,-18813.5,
0.705,-1.532809,0.200690092,9.773307,-0.0022784918,0.00019399822,0.0031357436,30592.0,-16131.5,-17789.5,
0.823,-1.5280206,0.18871908,9.670356,-0.00694158636,0.001526311,-0.001793813,30592.0,-15875.5,-18301.5,
0.939,-1.5663278,0.198295884,9.737393,-0.002811417,-0.0026038588,-0.0008611949,31104.0,-16387.5,-18557.5,
1.062,-1.4897134,0.17674806,9.739788,0.0002528876,-0.0006053895,-0.0060572124,31104.0,-16387.5,-18045.5,
1.178,-1.5280206,0.203084284,9.677539,-0.007074803,0.0032583176,0.0012705056,30592.0,-16387.5,-17533.5,
1.302,-1.472954,0.171959668,9.665567,-0.0005464852,-0.0030035526,-0.0013941191,30336.0,-16899.5,-17533.5,
1.420,-1.4873192,0.14801764,9.586558,-0.0029446482,0.0033915452,0.0026028176,30848.0,-16899.5,-18045.5,
1.537,-1.4921076,0.203084284,9.593741,-0.0030778944,0.0009933859,-0.0003282698,30848.0,-16131.5,-17533.5,
1.660,-1.4921076,0.203084284,9.641625,-0.0022784918,0.0032583176,-0.0008611949,30336.0,-16387.5,-18301.5,
1.778,-1.4992902,0.2126611,9.663174,0.0011855215,0.00019399822,-0.0003282698,30848.0,-16643.5,-18557.5,
1.895,-1.4873192,0.15520026,9.646414,-0.00361080468,0.0040577016,0.0020698932,30592.0,-16643.5,-18301.5,
2.012,-1.4897134,0.241391508,9.629655,-0.0040104984,0.0020592324,-0.0024599694,30592.0,-16387.5,-17789.5,
2.130,-1.5016844,0.2150553,9.732605,-0.00014679134,0.0041909368,0.00087081176,31104.0,-16387.5,-18045.5,
2.253,-1.5256264,0.2198437,9.639232,-0.0050763636,0.0008601546,-0.0016605817,30592.0,-16387.5,-18045.5,
2.369,-1.4777424,0.2150553,9.632049,-0.0016123354,0.0064558648,-0.00339258784,30848.0,-16899.5,-19069.5,
2.487,-1.532809,0.234208916,9.730211,-0.0016123354,-7.246435e-05,-0.0001950385,30592.0,-16643.5,-18045.5,
2.604,-1.4945018,0.234208916,9.632049,-0.003344342,0.0016595423,-0.0016605817,30592.0,-16387.5,-18301.5,
2.722,-1.5663278,0.19111328,9.677539,-0.00347757336,-0.0060678684,-0.006190444,31104.0,-16387.5,-18557.5,
2.846,-1.6692784,0.2174495,10.872245,-0.0013458729,-0.039375676,-0.0045916692,30848.0,-16643.5,-18301.5,
2.963,-1.5280206,0.24617992,9.6105,-0.0049431176,0.0028586238,-0.0015273513,30848.0,-16387.5,-18557.5,
3.080,-1.5160496,0.234208916,9.658385,-0.0022784918,0.0029918552,-0.0035258192,30848.0,-16387.5,-17277.5,
3.199,-1.5016844,0.18153646,9.624866,-0.0005464852,0.0013930798,-0.0008611949,31360.0,-16131.5,-18045.5,
3.315,-1.484925,0.16717127,9.785277,0.0005193651,0.005256787,0.00087081176,31104.0,-16131.5,-18557.5,
3.437,-1.5280206,0.21026689,9.708663,0.000919044,0.00019399822,0.00087081176,30336.0,-16387.5,-18301.5,
3.555,-1.5232322,0.203084284,9.665567,-0.0029446482,0.0019260049,-0.0013941191,30848.0,-16387.5,-18301.5,
3.675,-1.54478,0.19111328,9.646414,-0.005609274,0.0032583176,-0.0005947314,31104.0,-16387.5,-18557.5,
3.789,-1.4921076,0.16477707,9.677539,-0.007874206,-0.0004721582,-0.0029928944,30848.0,-15875.5,-18557.5,
3.906,-1.5399916,0.18632488,9.727817,-0.0032111108,0.00179276984,-0.0045916692,31104.0,-15619.5,-17277.5,
4.030,-1.5543568,0.236603108,9.689509,-0.003344342,0.0013930798,-0.0031261258,30592.0,-16387.5,-18301.5,
4.147,-1.5112612,0.17914226,9.646414,-0.0010794252,0.0025921612,0.001004043,29568.0,-16899.5,-18813.5,
4.264,-1.5232322,0.241391508,9.814008,-0.00014679134,-0.00273709,-0.0049913632,30592.0,-16131.5,-17021.5,
4.381,-1.5352032,0.18632488,9.713451,-0.0010794252,-0.00313678,0.000337886632,31104.0,-16131.5,-17789.5,
4.497,-1.4873192,0.203084284,9.679933,-0.00361080468,0.0049903208,-0.0015273513,30848.0,-16643.5,-17533.5,
4.623,-1.5543568,0.2126611,9.711058,-0.00081294776,-7.246435e-05,-0.0035258192,30848.0,-16131.5,-17533.5,
4.739,-1.5256264,0.200690092,9.665567,-0.0025449544,0.0016595423,-0.0011276575,30848.0,-16131.5,-17789.5,
4.858,-1.5495684,0.171959668,9.658385,-0.004676655,-0.000871852064,-0.001793813,30336.0,-16131.5,-18045.5,
4.976,-1.4992902,0.2150553,9.689509,-0.006142199,0.0040577016,-0.002326738,31104.0,-16131.5,-17533.5,
5.092,-1.568722,0.16238287,9.629655,-0.0021452606,0.0019260049,-0.004191975,30848.0,-16899.5,-18045.5,
5.215,-1.5112612,0.205478492,9.670356,0.0019849092,0.00179276984,-0.0052578252,30848.0,-16387.5,-18301.5,
5.334,-1.5280206,0.17914226,9.699086,-0.003344342,0.0008601546,-0.0008611949,31104.0,-17155.5,-17021.5,
5.449,-1.5352032,0.22942052,9.751759,-0.0038772672,-0.000205695632,-0.0060572124,30592.0,-16643.5,-17021.5,
5.567,-1.6094234,0.18871908,9.780489,-0.0040104984,-0.0035364776,-0.0011276575,30336.0,-16899.5,-19069.5,
5.690,-1.5735104,0.18871908,9.706269,-0.00361080468,-0.0003389269,0.00073758052,30336.0,-16899.5,-17789.5,
5.808,-1.451406,0.205478492,9.55304,0.0005193651,0.010985728,-0.001793813,30592.0,-16387.5,-17789.5,
5.923,-1.5759046,0.2246321,9.739788,-0.00094617908,0.0040577016,0.0014037369,31104.0,-16131.5,-18045.5,
6.040,-1.5280206,0.21026689,9.670356,0.0003861338,0.0033915452,0.002336355,31104.0,-17155.5,-19325.5,
6.158,-1.4921076,0.200690092,9.706269,-0.007874206,0.0028586238,-0.0021935068,31360.0,-16899.5,-19069.5,
6.281,-1.5136554,0.234208916,9.588953,-0.002411738,0.006189406,-0.0008611949,30848.0,-16899.5,-18045.5,
6.398,-1.4609828,0.205478492,9.730211,-0.0040104984,0.0045906304,-0.0016605817,30848.0,-16387.5,-18301.5,
6.516,-1.5184438,0.15998866,9.634443,-0.00028002262,0.0023256988,-0.0028596632,30592.0,-16643.5,-18045.5,
6.634,-1.508867,0.198295884,9.696692,-0.002411738,0.0043241644,-0.0019270442,30848.0,-16387.5,-18557.5,
6.751,-1.5495684,0.171959668,9.670356,-0.0017455816,0.004857093,-0.00339258784,31104.0,-16643.5,-17533.5,
6.875,-1.5280206,0.18393066,9.663174,-0.0012126416,0.004857093,0.0006043492,30848.0,-16643.5,-19069.5,
6.991,-1.4705598,0.25575674,9.62726,-0.0005464852,0.007122021,-0.0019270442,30592.0,-16899.5,-18557.5,
7.106,-1.54478,0.26293932,9.703875,-0.00081294776,0.006189406,-0.003925513,30848.0,-16131.5,-18045.5,
7.220,-1.4897134,0.26772772,9.64402,-0.004276961,0.0021924674,-0.000727963636,30592.0,-16131.5,-17789.5,
7.337,-1.5040786,0.27969872,9.684721,-0.002411738,0.0029918552,-0.0012608878,30848.0,-16387.5,-18045.5,
7.459,-1.472954,0.2126611,9.670356,-0.0016123354,0.00179276984,-0.0008611949,30080.0,-16387.5,-18045.5,
7.576,-1.5375974,0.16717127,9.732605,-0.006675124,0.0009933859,-0.0020602756,30336.0,-16643.5,-18813.5,
7.692,-1.532809,0.200690092,9.655991,-0.0021452606,0.0041909368,-0.0049913632,31104.0,-16899.5,-18045.5,
7.810,-1.5352032,0.19111328,9.677539,-0.00081294776,0.0012598485,-6.180722e-05,31104.0,-16387.5,-18557.5,
7.926,-1.532809,0.171959668,9.612895,-0.004676655,0.0067223272,0.00087081176,30848.0,-16643.5,-18045.5,
8.049,-1.5184438,0.17914226,9.694298,-0.00347757336,0.0012598485,-0.0008611949,30848.0,-16643.5,-18557.5,
8.167,-1.496896,0.2126611,9.679933,-0.0025449544,0.003791239,-0.000727963636,31360.0,-15875.5,-18813.5,
8.283,-1.5256264,0.21026689,9.708663,-0.0032111108,-0.0003389269,-0.0008611949,30592.0,-16899.5,-18813.5,
8.401,-1.5591452,0.18632488,9.708663,-0.001878798,0.0003272295,-0.002726432,31104.0,-16643.5,-18045.5,
8.516,-1.5064728,0.22942052,9.665567,-0.0020120292,0.0012598485,0.004201592,31104.0,-16643.5,-18557.5,
8.639,-1.4945018,0.2126611,9.663174,-0.0004132688,0.0020592324,0.000337886632,31104.0,-16643.5,-17277.5,
8.756,-1.5352032,0.18632488,9.670356,-0.0013458729,0.0031250828,-0.0008611949,31104.0,-16643.5,-17277.5,
8.873,-1.54478,0.13844084,9.677539,-0.0005464852,0.0036580116,-0.0011276575,31104.0,-16387.5,-18301.5,
8.988,-1.5352032,0.203084284,9.691904,-1.3560057e-05,0.0027253888,-0.0035258192,30592.0,-16643.5,-18301.5,
9.106,-1.5519626,0.18871908,9.711058,0.00065259636,0.0028586238,0.0006043492,30848.0,-16643.5,-17533.5,
9.229,-1.5352032,0.234208916,9.694298,-0.00414373,-0.00180447468,-0.0019270442,29824.0,-16899.5,-18301.5,
9.347,-1.4992902,0.19111328,9.737393,-0.0040104984,0.00072692332,-0.0009944253,30592.0,-16387.5,-18045.5,
9.464,-1.520838,0.2198437,9.756547,-0.0012126416,0.00072692332,-0.0008611949,30848.0,-16643.5,-17789.5,
9.579,-1.4921076,0.22942052,9.76373,0.0002528876,0.000460457068,-0.0008611949,30848.0,-15619.5,-18301.5,
9.696,-1.5543568,0.14801764,9.766124,-0.00094617908,0.0003272295,0.00047111884,30336.0,-16387.5,-17789.5,
9.819,-1.5375974,0.18632488,9.739788,-0.0014791042,0.00072692332,-0.00046150108,30848.0,-16131.5,-18557.5,
9.937,-1.5304148,0.174353868,9.634443,-0.0004132688,0.001526311,-0.0025932006,31104.0,-16899.5,-18557.5,
10.054,-1.5040786,0.18153646,9.699086,-0.0050763636,-0.0016712397,-0.0012608878,30592.0,-16387.5,-17789.5,
10.172,-1.4897134,0.169565468,9.689509,-0.0025449544,-0.00180447468,0.000337886632,30336.0,-16899.5,-18301.5,
10.292,-1.4945018,0.2150553,9.62726,-0.0021452606,0.004723858,0.00073758052,31104.0,-16387.5,-18557.5,
10.413,-1.5423858,0.2198437,9.622472,-0.0026781856,0.0013930798,0.0011372734,30080.0,-16387.5,-18813.5,
10.530,-1.4801366,0.15520026,9.660779,0.000119671224,0.0044573956,-0.0013941191,30336.0,-16643.5,-17277.5,
10.649,-1.472954,0.19111328,9.691904,-0.0022784918,0.0035247804,-0.0005947314,30592.0,-16387.5,-18045.5,
10.766,-1.4777424,0.16717127,9.696692,0.001451984,-0.0010050833,-0.0024599694,30592.0,-16131.5,-18557.5,
10.889,-1.5232322,0.19111328,9.605712,-0.0005464852,0.00179276984,-0.0031261258,30592.0,-15875.5,-19069.5,
11.007,-1.532809,0.18632488,9.64402,-0.00067971648,0.0021924674,-0.0049913632,31104.0,-15619.5,-18045.5,
11.123,-1.5399916,0.25096834,9.665567,-0.00094617908,-0.0006053895,0.00073758052,31104.0,-16131.5,-18557.5,
11.240,-1.4992902,0.198295884,9.723028,-0.0016123354,0.0032583176,-0.00046150108,30592.0,-16387.5,-18557.5,
11.359,-1.5519626,0.205478492,9.646414,-0.00347757336,0.005123552,0.004734517,30336.0,-16131.5,-18301.5,
11.482,-1.5112612,0.19111328,9.720634,-0.0040104984,-0.0032700152,-0.00339258784,30848.0,-15875.5,-18045.5,
11.600,-1.4777424,0.195901692,9.624866,-0.0005464852,-0.0006053895,0.00073758052,30592.0,-16387.5,-18045.5,
11.717,-1.5280206,0.18632488,9.701481,-0.0044102072,0.0033915452,7.142406e-05,30336.0,-16643.5,-17533.5,
11.834,-1.5352032,0.2198437,9.715846,-0.00361080468,0.0011266135,0.0015369672,31104.0,-16131.5,-17533.5,
11.951,-1.5399916,0.203084284,9.706269,-0.0037440508,0.0044573956,0.0011372734,30848.0,-16643.5,-18301.5,
12.075,-1.54478,0.174353868,9.703875,0.00185167792,0.00698879,0.00020465534,30080.0,-15875.5,-17789.5,
12.193,-1.4585886,0.203084284,9.665567,-0.0026781856,0.004723858,-0.0001950385,30848.0,-16131.5,-17533.5,
12.310,-1.4945018,0.193507484,9.670356,-0.0029446482,0.0045906304,-0.0012608878,30080.0,-16387.5,-17277.5,
12.429,-1.5160496,0.207872684,9.74697,-0.0037440508,-0.0003389269,0.0030025114,30592.0,-16131.5,-18557.5,
12.546,-1.5471742,0.200690092,9.713451,-0.002811417,-0.0022041648,0.00020465534,31360.0,-15875.5,-18557.5,
12.676,-1.5040786,0.19111328,9.639232,-0.0049431176,0.0021924674,-0.003259357,31104.0,-15619.5,-17021.5,
12.793,-1.5136554,0.171959668,9.730211,-0.0012126416,0.0041909368,-0.0012608878,30592.0,-15875.5,-17533.5,
12.912,-1.5184438,0.17914226,9.694298,-0.00347757336,0.0040577016,0.00020465534,30592.0,-15619.5,-17021.5,
13.031,-1.5184438,0.195901692,9.684721,-0.0030778944,-0.0014047772,-0.0029928944,30848.0,-15875.5,-19069.5,
13.150,-1.568722,0.2174495,9.646414,-0.00347757336,0.0032583176,0.0016701994,30848.0,-16643.5,-17789.5,
13.272,-1.4777424,0.2246321,9.608107,-0.0038772672,-0.0016712397,-0.0003282698,30336.0,-15619.5,-18045.5,
13.388,-1.5423858,0.195901692,9.715846,-0.0092065184,0.0023256988,0.00073758052,30336.0,-16387.5,-17789.5,
13.507,-1.5112612,0.203084284,9.713451,-0.003344342,0.0067223272,-0.0021935068,30336.0,-15875.5,-18045.5,
13.624,-1.5112612,0.2198437,9.696692,0.002384603,0.0028586238,-0.0043252064,30592.0,-15619.5,-17277.5,
13.740,-1.508867,0.19111328,9.703875,-0.0014791042,-0.0014047772,0.00020465534,30336.0,-15875.5,-17533.5,
13.863,-1.5136554,0.171959668,9.6488088,-0.004276961,0.0023256988,-0.0036590504,30848.0,-15619.5,-17021.5,
13.982,-1.5064728,0.205478492,9.639232,-0.0013458729,0.0032583176,-0.0019270442,30848.0,-16131.5,-17533.5,
14.100,-1.5160496,0.21026689,9.67275,-0.00028002262,0.005123552,-0.004191975,30080.0,-15875.5,-17533.5,
14.217,-1.508867,0.200690092,9.636837,-0.001878798,0.0033915452,-0.0035258192,30592.0,-16131.5,-16509.5,
14.340,-1.4897134,0.203084284,9.691904,-0.002811417,-0.0011383183,-0.002726432,30592.0,-15875.5,-17021.5,
14.457,-1.5256264,0.205478492,9.59853,-0.0030778944,0.0033915452,-0.0011276575,30848.0,-15875.5,-17533.5,
14.575,-1.4921076,0.21026689,9.59853,-0.0022784918,-0.0012715459,0.00087081176,30336.0,-16387.5,-17789.5,
14.693,-1.4801366,0.16238287,9.689509,-0.0012126416,0.0023256988,-0.002326738,31104.0,-16131.5,-16253.5,
14.810,-1.5280206,0.236603108,9.694298,-0.0032111108,0.0025921612,-0.004458438,30336.0,-15619.5,-17021.5,
14.933,-1.5399916,0.174353868,9.689509,-0.003344342,-0.0034032464,-0.0029928944,30336.0,-16387.5,-18045.5,
15.051,-1.568722,0.21026689,9.730211,-0.002411738,0.0012598485,-0.0008611949,31104.0,-15619.5,-18045.5,
15.168,-1.5399916,0.203084284,9.651202,0.004249841,0.001526311,-0.0016605817,31104.0,-16131.5,-18045.5,
15.285,-1.496896,0.200690092,9.612895,0.00065259636,0.0049903208,0.0020698932,31104.0,-16131.5,-17533.5,
15.403,-1.4945018,0.195901692,9.67275,0.00065259636,-0.005401712,0.0015369672,31104.0,-15875.5,-17533.5,
15.527,-1.5040786,0.2198437,9.658385,-0.001878798,0.00698879,-0.000727963636,30848.0,-15875.5,-17533.5,
15.643,-1.5304148,0.19111328,9.727817,-0.00347757336,0.004723858,-0.0029928944,30592.0,-15875.5,-18813.5,
15.760,-1.5304148,0.205478492,9.706269,-0.00361080468,0.0049903208,0.00020465534,31104.0,-15619.5,-17533.5,
15.880,-1.5184438,0.2150553,9.636837,-0.004276961,0.0020592324,0.0006043492,30080.0,-15875.5,-17533.5,
15.995,-1.5064728,0.2150553,9.687116,-0.0017455816,0.0016595423,-0.000727963636,30848.0,-15619.5,-17533.5,
16.118,-1.508867,0.200690092,9.814008,0.000919044,-0.0006053895,0.00073758052,30592.0,-15875.5,-18301.5,
16.235,-1.5375974,0.17674806,9.723028,-0.0021452606,0.0033915452,-0.0040587444,30592.0,-16387.5,-17021.5,
16.352,-1.4921076,0.18871908,9.687116,-0.00028002262,0.0044573956,-6.180722e-05,30592.0,-16643.5,-19069.5,
16.469,-1.5040786,0.15998866,9.6488088,-0.0021452606,0.00059369208,0.00073758052,30336.0,-16131.5,-17277.5,
16.588,-1.5471742,0.203084284,9.634443,-0.008140668,-0.0019377023,-0.0031261258,31104.0,-16131.5,-18045.5,
16.713,-1.5112612,0.207872684,9.739788,-0.0053428112,0.00072692332,-0.0009944253,30592.0,-16131.5,-16765.5,
16.831,-1.5256264,0.2222379,9.713451,-0.0014791042,6.0766936e-05,-0.005124594,30848.0,-16387.5,-16765.5,
16.948,-1.5495684,0.19111328,9.706269,-0.0005464852,0.0027253888,0.0011372734,30848.0,-16387.5,-17533.5,
17.065,-1.472954,0.18153646,9.655991,-0.004276961,0.0024589264,-0.000727963636,30848.0,-16387.5,-17277.5,
17.182,-1.520838,0.200690092,9.603318,-0.0004132688,0.0063226336,-0.000727963636,30592.0,-16643.5,-17789.5,
17.306,-1.5591452,0.207872684,9.670356,-0.00414373,-0.0019377023,0.000337886632,31104.0,-16643.5,-17789.5,
17.425,-1.5136554,0.18632488,9.689509,-0.004809886,0.0040577016,-0.0049913632,30080.0,-16899.5,-17277.5,
17.541,-1.5136554,0.205478492,9.725423,-0.005609274,0.004723858,-0.0019270442,30336.0,-16387.5,-17533.5,
17.659,-1.5064728,0.195901692,9.538674,-0.0014791042,0.005256787,-0.0024599694,30848.0,-16387.5,-17533.5,
17.782,-1.5112612,0.18871908,9.708663,-0.0030778944,0.0044573956,0.000337886632,30592.0,-16387.5,-17789.5,
17.900,-1.508867,0.16238287,9.651202,0.00065259636,0.0032583176,-0.002326738,30592.0,-16899.5,-18045.5,
18.016,-1.520838,0.2150553,9.646414,-0.002411738,0.0036580116,-0.0013941191,30848.0,-15875.5,-17021.5,
18.132,-1.5304148,0.2174495,9.670356,-0.00414373,0.009253722,-0.0029928944,30592.0,-15619.5,-17789.5,
18.246,-1.532809,0.2174495,9.679933,-0.009472981,0.005123552,-0.0009944253,30592.0,-16643.5,-18045.5,
18.366,-1.508867,0.22942052,9.620077,-0.0010794252,0.0011266135,0.0035354364,29824.0,-16643.5,-18045.5,
18.483,-1.520838,0.24617992,9.706269,-0.00347757336,0.0036580116,0.001004043,30592.0,-16131.5,-18301.5,
18.599,-1.54478,0.18153646,9.620077,-0.0032111108,-0.0023373962,-0.0029928944,30592.0,-16387.5,-18557.5,
18.715,-1.5064728,0.18153646,9.677539,-0.0030778944,0.0033915452,-0.0009944253,29824.0,-16387.5,-17533.5,
18.832,-1.508867,0.169565468,9.684721,-0.0016123354,0.0031250828,0.0012705056,30848.0,-16131.5,-18557.5,
18.956,-1.5615394,0.17914226,9.679933,-0.0040104984,-0.0010050833,-0.0001950385,30336.0,-15875.5,-18301.5,
19.073,-1.5280206,0.17674806,9.720634,-0.007074803,-0.0022041648,-6.180722e-05,30592.0,-16131.5,-17533.5,
19.189,-1.5615394,0.18153646,9.605712,-0.0004132688,-0.004602328,-0.0012608878,31104.0,-15619.5,-17789.5,
19.305,-1.5256264,0.18632488,9.651202,-0.0030778944,0.008321103,-0.0025932006,30336.0,-15875.5,-17789.5,
19.422,-1.508867,0.205478492,9.732605,-0.0049431176,-0.0016712397,-0.0048581316,30592.0,-16131.5,-18045.5,
19.545,-1.520838,0.203084284,9.749365,-0.00014679134,-0.0011383183,0.0015369672,30592.0,-16387.5,-17277.5,
19.663,-1.4825308,0.22942052,9.67275,-0.0016123354,0.003791239,-0.003925513,30336.0,-16643.5,-18301.5,
19.778,-1.5232322,0.18871908,9.653597,0.001451984,0.0021924674,0.00073758052,31104.0,-15875.5,-18557.5,
19.895,-1.5016844,0.16717127,9.701481,-0.00361080468,0.0021924674,-0.0009944253,30592.0,-16387.5,-18301.5,
20.013,-1.5399916,0.200690092,9.651202,-0.0045434236,0.0013930798,0.0015369672,30592.0,-16387.5,-18557.5,
20.138,-1.5064728,0.203084284,9.612895,-0.0022784918,0.0021924674,-0.0009944253,30592.0,-16387.5,-18045.5,
20.256,-1.5591452,0.18153646,9.780489,-0.0064086468,-0.0043358652,0.0014037369,31104.0,-16387.5,-18045.5,
20.373,-1.5471742,0.198295884,9.675144,-0.0045434236,-0.0012715459,0.0024695872,31104.0,-16899.5,-18045.5,
20.492,-1.484925,0.21026689,9.67275,-0.00014679134,-0.0028703212,0.0016701994,30848.0,-16131.5,-18045.5,
20.610,-1.4921076,0.21026689,9.754153,-0.00694158636,-0.00273709,-0.0009944253,30848.0,-16899.5,-19069.5,
20.734,-1.556751,0.18632488,9.701481,0.0022513718,0.0019260049,-0.0003282698,31104.0,-16131.5,-17533.5,
20.852,-1.5064728,0.18153646,9.665567,-0.0054760424,0.0023256988,-0.000727963636,30848.0,-15619.5,-18301.5,
20.970,-1.6692784,0.207872684,9.787672,0.006514773,-0.005534947,0.0067329864,31104.0,-15363.5,-18301.5,
21.087,-1.5040786,0.236603108,9.677539,-0.0026781856,0.0040577016,-0.002326738,30848.0,-16131.5,-18045.5,
21.205,-1.4873192,0.19111328,9.629655,-0.0040104984,0.0020592324,0.00047111884,31104.0,-16131.5,-17533.5,
21.329,-1.592664,0.234208916,10.0630048,-0.0050763636,-0.012462974,-0.0028596632,30848.0,-16387.5,-17789.5,
21.448,-1.5184438,0.2246321,9.521915,-0.00520958,0.00059369208,-0.0009944253,31104.0,-16131.5,-18557.5,
21.563,-1.5232322,0.236603108,9.670356,0.0029175282,0.00912049,0.0012705056,30848.0,-16131.5,-17533.5,
21.680,-1.5160496,0.207872684,9.761335,-0.0038772672,-0.0043358652,0.00020465534,31104.0,-15875.5,-18813.5,
21.804,-1.4681654,0.21026689,9.500367,-0.0062754304,0.0076549464,0.0022031236,30592.0,-15875.5,-18045.5,
21.923,-1.5160496,0.18632488,9.677539,-0.0044102072,0.0011266135,-0.000727963636,30336.0,-15875.5,-18557.5,
22.042,-1.5352032,0.174353868,9.670356,-0.0010794252,0.0025921612,-0.001793813,30848.0,-16643.5,-18045.5,
22.159,-1.5352032,0.16717127,9.660779,-0.002811417,-0.0020709336,-0.002326738,30848.0,-16131.5,-16765.5,
22.275,-1.4945018,0.27730452,9.737393,-0.001878798,-0.000871852064,-0.00339258784,31104.0,-16131.5,-17021.5,
22.400,-1.520838,-0.0076054632,9.787672,0.003317222,-0.0028703212,0.0024695872,30848.0,-16643.5,-17533.5,
22.515,-1.4657712,0.22702632,9.699086,-0.006541893,0.00698879,0.0018034298,30848.0,-16387.5,-17277.5,
22.630,-1.496896,0.2222379,9.696692,-0.0016123354,0.0023256988,-0.0015273513,30080.0,-16387.5,-18301.5,
22.746,-1.4753482,0.18393066,9.663174,-0.0020120292,0.0021924674,-0.0035258192,30848.0,-15619.5,-17277.5,
22.864,-1.4609828,0.15998866,9.691904,-0.003344342,0.001526311,-0.0040587444,31104.0,-15875.5,-17021.5,
22.986,-1.5016844,0.17914226,9.632049,-0.0057424904,0.00059369208,0.0022031236,30848.0,-15875.5,-17021.5,
23.104,-1.5064728,0.203084284,9.658385,-0.00094617908,0.0040577016,-0.0025932006,31360.0,-16131.5,-16765.5,
23.223,-1.5184438,0.174353868,9.687116,-0.010272369,-0.0048687904,-0.0003282698,31360.0,-15107.5,-16765.5,
23.341,-1.5160496,0.200690092,9.715846,-0.0050763636,0.0019260049,0.00087081176,31360.0,-15619.5,-17021.5,
23.461,-1.7075856,0.19111328,10.012727,-0.010938525,-0.005534947,-0.0035258192,31104.0,-15875.5,-17789.5,
23.600,-1.592664,0.198295884,9.605712,-0.0013458729,0.0009933859,0.002336355,31104.0,-16131.5,-17533.5,
23.717,-1.4609828,0.17914226,9.658385,-0.002811417,0.0031250828,-0.0001950385,31104.0,-15875.5,-17277.5,
23.833,-1.5256264,0.195901692,9.634443,-0.007474512,-0.0011383183,-0.00752275664,30848.0,-16131.5,-17021.5,
23.952,-1.4945018,0.19111328,9.667962,-0.0029446482,0.0013930798,-0.0012608878,30080.0,-16387.5,-18813.5,
24.069,-1.4777424,0.22942052,9.58177,-0.0068083555,-0.0023373962,-0.0016605817,30592.0,-16643.5,-17021.5,
24.192,-1.5495684,0.15041184,9.663174,-0.0058757364,0.0008601546,-0.0035258192,30592.0,-16131.5,-17789.5,
24.308,-1.520838,0.171959668,9.675144,-0.0032111108,0.0011266135,-0.00046150108,30592.0,-16131.5,-17789.5,
24.426,-1.4801366,0.205478492,9.646414,-0.00347757336,0.0067223272,-0.001793813,30336.0,-16899.5,-18557.5,
24.545,-1.4992902,0.207872684,9.739788,-0.005609274,-0.000871852064,-0.0011276575,31104.0,-16131.5,-17533.5,
24.664,-1.5064728,0.18871908,9.701481,-0.0064086468,-0.000871852064,-0.0025932006,30848.0,-16131.5,-17789.5,
24.788,-1.484925,0.174353868,9.713451,-0.0026781856,-0.0019377023,-0.0008611949,30848.0,-16643.5,-19069.5,
24.907,-1.5399916,0.2126611,9.696692,-0.00081294776,-0.0024706236,-0.00046150108,31104.0,-16131.5,-18301.5,
25.023,-1.5256264,0.200690092,9.612895,-0.006541893,0.0063226336,-0.0013941191,30592.0,-15875.5,-17021.5,
25.142,-1.5040786,0.2246321,9.620077,-0.002411738,0.010985728,-0.003259357,31616.0,-16131.5,-17277.5,
25.263,-1.5064728,0.18393066,9.555434,-0.005609274,0.00698879,-0.0031261258,30848.0,-16387.5,-18557.5,
25.378,-1.556751,0.2198437,9.742182,-0.0058757364,0.00059369208,-0.0019270442,30592.0,-16643.5,-17533.5,
25.495,-1.5232322,0.234208916,9.713451,-0.006675124,-0.000738620736,0.0015369672,30848.0,-16131.5,-17021.5,
25.614,-1.54478,0.2150553,9.684721,-0.004276961,-0.000205695632,0.0011372734,30592.0,-16387.5,-18301.5,
25.729,-1.5423858,0.2198437,9.675144,0.0005193651,0.001526311,0.0006043492,30080.0,-15619.5,-17789.5,
25.849,-1.5016844,0.198295884,9.677539,-0.004809886,0.0028586238,0.000337886632,31360.0,-15875.5,-18045.5,
25.968,-1.5998466,0.18393066,9.689509,-0.0004132688,-0.000871852064,7.142406e-05,30848.0,-16387.5,-18045.5,
26.086,-1.508867,0.16717127,9.708663,-0.00094617908,0.0013930798,0.0027360496,31104.0,-15875.5,-18045.5,
26.203,-1.5016844,0.174353868,9.629655,-0.00094617908,0.0040577016,-0.0009944253,30336.0,-16131.5,-18301.5,
26.321,-1.4442234,0.2222379,9.46206,-0.009606212,0.010719266,-0.002726432,30848.0,-15875.5,-17021.5,
26.442,-1.4442234,0.18153646,9.486002,-0.0037440508,0.012584504,-0.0016605817,30336.0,-16643.5,-17789.5,
26.559,-1.4873192,0.236603108,9.677539,-0.0005464852,0.0008601546,-0.003925513,30848.0,-16387.5,-17021.5,
26.676,-1.508867,0.2222379,9.636837,-0.0020120292,-0.000738620736,0.0016701994,30336.0,-16387.5,-17533.5,
26.793,-1.5543568,0.19111328,9.684721,-0.0022784918,-0.0006053895,0.0014037369,30080.0,-16643.5,-17789.5,
26.910,-1.4466176,0.200690092,9.6488088,-0.00067971648,0.0033915452,-0.0024599694,31104.0,-15619.5,-17789.5,
27.035,-1.439435,0.205478492,9.641625,-0.0045434236,0.0024589264,-0.0016605817,30336.0,-15875.5,-17277.5,
27.153,-1.556751,0.198295884,9.665567,-0.0022784918,0.0041909368,-0.0020602756,30848.0,-15619.5,-17533.5,
27.270,-1.4945018,0.2222379,9.641625,-0.00028002262,0.0045906304,-0.0025932006,31104.0,-16131.5,-17021.5,
27.388,-1.532809,0.238997316,9.617683,-0.00694158636,0.005656477,0.000337886632,30592.0,-15875.5,-17277.5,
27.507,-1.5064728,0.18871908,9.624866,-0.002811417,-0.0011383183,0.0006043492,31104.0,-15875.5,-17021.5,
27.629,-1.5256264,0.2150553,9.696692,-0.003344342,0.00072692332,-0.0008611949,30592.0,-16131.5,-16765.5,
27.744,-1.5735104,0.095345216,9.691904,-0.00028002262,0.0055232496,0.0015369672,31104.0,-15619.5,-17533.5,
27.861,-1.4801366,0.200690092,9.629655,-0.0014791042,0.0024589264,0.003268974,30336.0,-15875.5,-18045.5,
27.979,-1.4873192,0.22942052,9.675144,-0.0012126416,0.0053900144,-0.0005947314,30848.0,-16131.5,-18301.5,
28.096,-1.4657712,0.234208916,9.6488088,-0.001878798,0.00059369208,-0.0021935068,31104.0,-16131.5,-18045.5,
28.220,-1.472954,0.171959668,9.64402,-0.0038772672,0.0029918552,-0.0019270442,30848.0,-16387.5,-17533.5,
28.337,-1.5136554,0.17914226,9.660779,0.0010522902,-0.0020709336,0.00087081176,30336.0,-16131.5,-17277.5,
28.455,-1.4992902,0.198295884,9.641625,-0.0029446482,0.0019260049,-0.0036590504,30848.0,-16387.5,-17789.5,
28.575,-1.5160496,0.2126611,9.703875,-0.003344342,-0.004469093,-0.0029928944,30848.0,-15875.5,-18301.5,
28.697,-1.496896,0.200690092,9.675144,-0.00361080468,-0.0015380084,0.000337886632,30592.0,-16643.5,-18301.5,
28.816,-1.54478,0.18871908,9.665567,-0.0021452606,0.0012598485,-0.0001950385,30592.0,-15875.5,-18557.5,
28.932,-1.4992902,0.24617992,9.684721,-0.002411738,0.0024589264,0.0027360496,30848.0,-15875.5,-17789.5,
29.049,-1.5112612,0.207872684,9.687116,-0.004676655,0.0016595423,0.000337886632,31104.0,-16131.5,-17789.5,
29.168,-1.4921076,0.241391508,9.639232,-0.00014679134,0.001526311,0.0015369672,31104.0,-16131.5,-17789.5,
29.292,-1.5064728,0.174353868,9.687116,0.000785827636,0.0032583176,-0.0012608878,30592.0,-16131.5,-17277.5,
29.411,-1.5280206,0.203084284,9.725423,-0.0032111108,-0.005401712,0.0027360496,30592.0,-16643.5,-17021.5,
29.529,-1.4609828,0.171959668,9.596135,-0.002811417,0.0012598485,-0.0024599694,30336.0,-15875.5,-18301.5,
29.647,-1.4921076,0.195901692,9.565011,0.0002528876,0.0040577016,-0.0009944253,31360.0,-15875.5,-17533.5,
29.764,-1.4873192,0.21026689,9.691904,-0.0004132688,0.0011266135,-0.0013941191,31360.0,-16387.5,-18301.5,
29.889,-1.5040786,0.16238287,9.639232,-0.0050763636,-0.00380293668,-6.180722e-05,30592.0,-15875.5,-17021.5,
30.007,-1.4777424,0.200690092,9.703875,-0.0021452606,0.005123552,-0.0009944253,30848.0,-15875.5,-18301.5,
30.125,-1.4921076,0.18153646,9.723028,-0.010672063,0.0032583176,-0.00046150108,30336.0,-16131.5,-18045.5,
30.242,-1.5399916,0.2126611,9.634443,-0.00028002262,0.0045906304,-0.0013941191,30336.0,-15619.5,-18045.5,
30.360,-1.4897134,0.195901692,9.711058,-0.0057424904,0.0049903208,-0.0008611949,31104.0,-16131.5,-17277.5,
30.484,-1.5471742,0.2174495,9.658385,-0.006675124,-0.000205695632,-0.006190444,31104.0,-15875.5,-18045.5,
30.600,-1.5256264,0.18871908,9.596135,-0.0026781856,6.0766936e-05,-0.000727963636,30592.0,-16131.5,-17789.5,
30.719,-1.5112612,0.2222379,9.684721,-0.0022784918,0.0063226336,0.0024695872,30592.0,-15363.5,-17021.5,
30.836,-1.5040786,0.21026689,9.64402,0.0019849092,0.0028586238,-0.002326738,30592.0,-15875.5,-17021.5,
30.954,-1.5160496,0.207872684,9.715846,-0.00774095936,0.0025921612,-0.0037922818,31360.0,-15875.5,-17533.5,
31.081,-1.5112612,0.193507484,9.658385,-1.3560057e-05,0.004723858,-6.180722e-05,30336.0,-15875.5,-17789.5,
31.198,-1.5160496,0.2150553,9.658385,-0.004809886,0.0009933859,-0.0016605817,31104.0,-15875.5,-17789.5,
31.314,-1.5040786,0.18632488,9.689509,-0.00347757336,0.00019399822,0.00047111884,30336.0,-15875.5,-17021.5,
31.433,-1.5232322,0.169565468,9.691904,-0.00361080468,0.000460457068,-0.0005947314,30592.0,-16643.5,-16509.5,
31.559,-1.5399916,0.171959668,9.622472,-0.004809886,0.0016595423,-0.0012608878,30848.0,-16387.5,-18045.5,
31.676,-1.5184438,0.193507484,9.711058,-0.00414373,0.0016595423,-6.180722e-05,30848.0,-16387.5,-17021.5,
31.793,-1.5375974,0.18871908,9.655991,-0.0022784918,0.0013930798,-0.0005947314,30848.0,-16643.5,-17789.5,
31.910,-1.5495684,0.2174495,9.682327,-0.0017455816,0.0024589264,-0.003259357,30592.0,-15875.5,-17277.5,
32.026,-1.5375974,0.18632488,9.677539,0.0002528876,0.008587565,-0.00046150108,30592.0,-16131.5,-16765.5,
32.148,-1.520838,0.198295884,9.696692,0.0034504532,-7.246435e-05,-0.002726432,30592.0,-15875.5,-16509.5,
32.265,-1.5256264,0.2198437,9.708663,-0.004276961,-0.000738620736,-0.0029928944,31104.0,-15875.5,-17789.5,
32.382,-1.520838,0.207872684,9.641625,-0.0050763636,0.0023256988,0.005267442,30592.0,-16131.5,-17277.5,
32.499,-1.5016844,0.174353868,9.632049,-0.0044102072,0.0055232496,-0.0009944253,31104.0,-15875.5,-18045.5,
32.617,-1.4897134,0.18153646,9.651202,-0.0029446482,0.00019399822,-0.0016605817,30848.0,-15619.5,-17277.5,
32.742,-1.5280206,0.203084284,9.684721,-0.0038772672,0.0032583176,0.0015369672,30848.0,-15875.5,-16765.5,
32.861,-1.5232322,0.2174495,9.699086,-0.0029446482,-0.000738620736,-0.0036590504,30848.0,-16131.5,-18045.5,
32.979,-1.4921076,0.22702632,9.629655,-0.003344342,0.0063226336,-0.0005947314,31360.0,-15875.5,-18045.5,
33.095,-1.5423858,0.21026689,9.670356,-0.009872675,-0.000871852064,-0.0001950385,30592.0,-16643.5,-17277.5,
33.213,-1.5423858,0.195901692,9.64402,-0.00414373,6.0766936e-05,0.0006043492,30592.0,-16643.5,-17789.5,
33.336,-1.508867,0.22942052,9.682327,-0.00520958,0.006589096,7.142406e-05,30080.0,-15875.5,-18301.5,
33.449,-1.5112612,0.195901692,9.615289,-0.0012126416,-0.0039361716,0.00073758052,30336.0,-15875.5,-18301.5,
33.567,-1.5352032,0.205478492,9.670356,-1.3560057e-05,0.00179276984,-0.004191975,31104.0,-16131.5,-18045.5,
33.686,-1.54478,0.198295884,9.646414,-0.0038772672,-0.0022041648,-0.0016605817,31104.0,-15363.5,-18045.5,
33.803,-1.5160496,0.18153646,9.667962,-0.0014791042,0.0033915452,-0.0011276575,30848.0,-15619.5,-17533.5,
33.927,-1.5423858,0.2246321,9.694298,-0.002811417,-0.0019377023,-0.002326738,30848.0,-15363.5,-18813.5,
34.044,-1.4897134,0.171959668,9.679933,-0.003344342,0.0053900144,-0.0012608878,31360.0,-16131.5,-18301.5,
34.162,-1.5375974,0.16717127,9.682327,-0.0030778944,-0.0014047772,-0.0003282698,31104.0,-15875.5,-17789.5,
34.279,-1.520838,0.15520026,9.723028,-0.00361080468,0.0003272295,-0.0016605817,30336.0,-17155.5,-18301.5,
34.396,-1.496896,0.18632488,9.689509,-0.0037440508,0.00179276984,-0.0011276575,30848.0,-15875.5,-19069.5,
34.520,-1.5160496,0.15520026,9.58177,-0.0057424904,0.0019260049,-0.00046150108,30592.0,-16131.5,-18557.5,
34.638,-1.5280206,0.174353868,9.720634,-0.0029446482,-0.005002022,0.0016701994,30592.0,-16131.5,-18045.5,
34.756,-1.5495684,0.205478492,9.701481,-0.004809886,0.001526311,-0.0016605817,30592.0,-16387.5,-18557.5,
34.879,-1.5375974,0.14083504,9.62726,-0.0032111108,0.001526311,0.0026028176,30848.0,-15107.5,-18813.5,
34.996,-1.5375974,0.198295884,9.71824,-0.0020120292,0.00059369208,-0.0021935068,31616.0,-15875.5,-19069.5,
35.120,-1.4945018,0.195901692,9.730211,-0.0049431176,0.003791239,-0.001793813,30848.0,-15619.5,-17021.5,
35.237,-1.5016844,0.203084284,9.694298,-0.0025449544,0.0023256988,-0.0011276575,31104.0,-16387.5,-18557.5,
35.356,-1.4945018,0.18153646,9.675144,-0.0053428112,0.0032583176,-0.0016605817,30592.0,-15875.5,-17533.5,
35.474,-1.5040786,0.200690092,9.660779,-0.0016123354,0.0012598485,0.0027360496,30848.0,-15875.5,-18301.5,
35.599,-1.5399916,0.19111328,9.660779,-0.0022784918,0.0020592324,-0.0012608878,30592.0,-16387.5,-17277.5,
35.716,-1.54478,0.203084284,9.632049,-0.0045434236,0.000460457068,-0.0013941191,30592.0,-16131.5,-18301.5,
35.835,-1.5040786,0.18871908,9.67275,-0.0054760424,0.0044573956,-0.0019270442,31104.0,-16643.5,-18813.5,
35.952,-1.5399916,0.174353868,9.684721,-0.00081294776,0.004723858,-0.0003282698,31104.0,-15875.5,-18813.5,
36.069,-1.5256264,0.200690092,9.715846,-0.0012126416,0.0021924674,-0.0012608878,30848.0,-16131.5,-17533.5,
36.194,-1.508867,0.17914226,9.646414,-0.00720804936,0.003791239,-0.0011276575,30336.0,-15875.5,-17789.5,
36.311,-1.5160496,0.200690092,9.646414,-0.0064086468,0.006056171,-0.0015273513,30848.0,-15875.5,-17789.5,
36.429,-1.5423858,0.200690092,9.665567,-0.0017455816,0.0016595423,-0.0005947314,31360.0,-15107.5,-17789.5,
36.547,-1.5232322,0.193507484,9.708663,-0.0057424904,0.0012598485,0.00073758052,31616.0,-15875.5,-18301.5,
36.666,-1.4801366,0.200690092,9.660779,0.0019849092,0.0008601546,-0.001793813,30848.0,-15875.5,-18557.5,
36.805,-1.472954,0.19111328,9.663174,-0.001878798,0.003791239,-0.003259357,30848.0,-15875.5,-17533.5,
36.919,-1.5352032,0.2150553,9.675144,-0.00361080468,0.00059369208,0.002336355,31360.0,-15619.5,-18557.5,
37.036,-1.5040786,0.22942052,9.615289,-0.00361080468,0.0068555624,7.142406e-05,30848.0,-15875.5,-17533.5,
37.154,-1.496896,0.15280604,9.737393,-0.0012126416,-0.0011383183,-0.0008611949,31360.0,-15619.5,-17533.5,
37.270,-1.5304148,0.18871908,9.696692,-0.0004132688,0.006056171,0.0014037369,30848.0,-16131.5,-17277.5,
37.392,-1.4921076,0.193507484,9.632049,0.0002528876,0.005123552,-0.0028596632,31104.0,-15619.5,-17789.5,
37.509,-1.5064728,0.26054512,9.526704,-0.0022784918,0.0036580116,-0.0009944253,30592.0,-15619.5,-18557.5,
37.626,-1.5399916,0.234208916,9.689509,-0.0045434236,-0.0016712397,0.0014037369,31360.0,-15875.5,-18045.5,
37.745,-1.5423858,0.195901692,9.687116,-0.00067971648,0.00725525236,0.00047111884,31104.0,-16131.5,-18045.5,
37.865,-1.5495684,0.200690092,9.679933,-0.0017455816,0.0009933859,-0.0013941191,30848.0,-15619.5,-18557.5,
37.989,-1.484925,0.2198437,9.646414,-0.0025449544,0.0040577016,-0.0025932006,31104.0,-16387.5,-18813.5,
38.105,-1.4585886,0.169565468,9.624866,-0.002811417,0.005256787,-0.0005947314,30592.0,-16131.5,-17789.5,
38.221,-1.5591452,0.195901692,9.696692,-0.0022784918,0.0008601546,0.0018034298,30848.0,-16131.5,-18045.5,
38.339,-1.508867,0.24378572,9.675144,-0.002811417,0.0049903208,-0.0020602756,30592.0,-16387.5,-18301.5,
38.455,-1.5112612,0.2126611,9.603318,-0.0025449544,0.0043241644,-0.0021935068,30848.0,-16899.5,-18813.5,
38.578,-1.5256264,0.22702632,9.608107,0.0019849092,0.0025921612,-6.180722e-05,30592.0,-15875.5,-18045.5,
38.694,-1.463377,0.19111328,9.576982,-0.002411738,0.006189406,-0.0008611949,30848.0,-16387.5,-18301.5,
38.808,-1.4801366,0.19111328,9.691904,-0.00774095936,0.0029918552,-0.0035258192,30336.0,-15619.5,-18813.5,
38.926,-1.5375974,0.16477707,9.727817,-0.0038772672,0.0035247804,-0.002726432,30592.0,-15875.5,-17277.5,
39.051,-1.5016844,0.2198437,9.660779,-0.0014791042,0.00805464,0.0006043492,30592.0,-16643.5,-18045.5,
39.166,-1.5064728,0.23181471,9.687116,-0.0029446482,0.0029918552,-0.0036590504,30848.0,-16643.5,-18557.5,
39.285,-1.4777424,0.203084284,9.588953,-0.00520958,-0.0034032464,-0.0031261258,30592.0,-16387.5,-18301.5,
39.402,-1.5064728,0.18153646,9.689509,-0.00694158636,0.00179276984,-0.0013941191,30336.0,-16643.5,-19325.5,
39.522,-1.5399916,0.23181471,9.632049,0.0013187528,-7.246435e-05,0.003268974,30848.0,-16643.5,-18045.5,
39.645,-1.5352032,0.198295884,9.677539,-0.004276961,-0.00180447468,-0.0020602756,30592.0,-16643.5,-19069.5,
39.763,-1.5423858,0.23181471,9.711058,-0.009472981,-0.0015380084,-0.0009944253,30848.0,-16643.5,-18813.5,
39.881,-1.508867,0.17914226,9.67275,-0.0068083555,-0.0011383183,-0.0001950385,31104.0,-16387.5,-18813.5,
39.998,-1.5160496,0.200690092,9.620077,-1.3560057e-05,0.0075217187,-0.0019270442,31104.0,-16131.5,-18301.5,
40.119,-1.451406,0.25096834,9.572193,-0.002811417,-0.000205695632,0.0011372734,31360.0,-16387.5,-18045.5,
40.242,-1.4992902,0.25096834,9.696692,-0.0044102072,-0.0004721582,-0.0001950385,31104.0,-16387.5,-19069.5,
40.359,-1.5304148,0.203084284,9.64402,-0.00347757336,0.0040577016,-0.0029928944,30592.0,-16643.5,-18557.5,
40.477,-1.5136554,0.200690092,9.694298,-0.0037440508,-0.0010050833,0.0018034298,30848.0,-17155.5,-17789.5,
40.596,-1.5040786,0.16717127,9.708663,-0.0037440508,0.000460457068,0.0015369672,30848.0,-16643.5,-17789.5,
40.715,-1.508867,0.169565468,9.679933,-0.00014679134,-0.000205695632,-6.180722e-05,31104.0,-16387.5,-17277.5,
40.839,-1.496896,0.2174495,9.639232,-0.00081294776,0.0021924674,-0.0040587444,30336.0,-16387.5,-17533.5,
40.955,-1.5495684,0.24378572,9.694298,-0.0022784918,-0.0023373962,-0.001793813,30848.0,-16387.5,-17277.5,
41.072,-1.4873192,0.241391508,9.655991,-0.00094617908,0.0036580116,-0.0013941191,30592.0,-16131.5,-18045.5,
41.191,-1.520838,0.2174495,9.732605,-0.0022784918,0.0020592324,0.00020465534,31360.0,-15875.5,-18301.5,
41.307,-1.5064728,0.234208916,9.691904,-0.0021452606,0.00738848368,0.00087081176,30592.0,-15875.5,-18557.5,
41.432,-1.5352032,0.203084284,9.634443,-0.0040104984,0.0009933859,0.00286928,30592.0,-16387.5,-17277.5,
41.548,-1.5304148,0.19111328,9.632049,-0.0064086468,0.0031250828,-0.0011276575,31104.0,-15875.5,-17789.5,
41.666,-1.5256264,0.169565468,9.586558,-0.00347757336,0.004857093,-0.0012608878,31104.0,-16387.5,-17789.5,
41.784,-1.5064728,0.207872684,9.663174,-0.0014791042,0.00019399822,0.00193666116,31104.0,-16131.5,-17533.5,
41.904,-1.4825308,0.2150553,9.687116,-0.004676655,0.0028586238,0.0011372734,30848.0,-16131.5,-17789.5,
42.027,-1.4992902,0.2126611,9.708663,0.0034504532,0.0016595423,0.00047111884,30592.0,-16131.5,-18301.5,
42.144,-1.54478,0.205478492,9.739788,-0.0064086468,0.003791239,-0.00046150108,30848.0,-16899.5,-18045.5,
42.260,-1.5256264,0.2174495,9.677539,-0.002411738,0.0053900144,0.0035354364,30592.0,-16131.5,-17021.5,
42.376,-1.5040786,0.2150553,9.713451,0.000119671224,0.0063226336,-0.001793813,30336.0,-16643.5,-17533.5,
42.499,-1.5160496,0.174353868,9.670356,-0.002811417,0.0013930798,-0.0020602756,31360.0,-16899.5,-17533.5,
42.617,-1.5304148,0.19111328,9.694298,-0.0022784918,0.0012598485,0.0011372734,30848.0,-15875.5,-17533.5,
42.735,-1.5256264,0.2150553,9.706269,-0.0030778944,0.0049903208,-0.0001950385,30592.0,-16387.5,-18301.5,
42.851,-1.5160496,0.19111328,9.670356,-0.0029446482,0.0028586238,-0.0013941191,30592.0,-16387.5,-17277.5,
42.969,-1.5375974,0.195901692,9.682327,-0.0013458729,0.00072692332,-0.0028596632,31360.0,-15363.5,-18813.5,
43.094,-1.5256264,0.169565468,9.663174,-0.00067971648,0.0023256988,0.00047111884,30848.0,-15619.5,-17789.5,
43.212,-1.4897134,0.18632488,9.696692,-0.00014679134,-0.000738620736,-0.0013941191,30336.0,-16131.5,-17533.5,
43.331,-1.5160496,0.22702632,9.701481,-0.004809886,0.0031250828,0.0015369672,30592.0,-16643.5,-17277.5,
43.447,-1.5184438,0.2246321,9.679933,-0.0004132688,0.0059229432,-0.0013941191,30848.0,-16131.5,-18301.5,
43.563,-1.5064728,0.14801764,9.689509,-0.0013458729,0.003791239,-0.00046150108,30848.0,-16131.5,-18557.5,
43.687,-1.4921076,0.14562344,9.727817,-0.00014679134,0.0012598485,-0.0015273513,30336.0,-16899.5,-18557.5,
43.805,-1.5184438,0.234208916,9.675144,-0.0026781856,0.004723858,-0.0020602756,30336.0,-16643.5,-18813.5,
43.923,-1.5184438,0.238997316,9.653597,-0.002411738,0.0032583176,-0.005657519,30080.0,-15875.5,-17277.5,
44.040,-1.4777424,0.18393066,9.615289,0.0003861338,0.0035247804,7.142406e-05,30592.0,-16387.5,-17277.5,
44.157,-1.484925,0.17914226,9.703875,-0.0054760424,0.00059369208,-0.0001950385,30336.0,-16387.5,-17021.5,
44.280,-1.5160496,0.13844084,9.667962,-0.0037440508,0.0019260049,0.0027360496,30080.0,-16899.5,-17789.5,
44.398,-1.5256264,0.18871908,9.651202,-0.0092065184,0.0016595423,-0.0028596632,30848.0,-16387.5,-17277.5,
44.515,-1.5160496,0.198295884,9.634443,-0.007074803,0.00072692332,-0.0013941191,30848.0,-16643.5,-19069.5,
44.633,-1.508867,0.2174495,9.723028,-0.0045434236,0.0024589264,-0.0005947314,30080.0,-16387.5,-17533.5,
44.749,-1.5304148,0.193507484,9.696692,0.000919044,0.0027253888,7.142406e-05,29824.0,-16387.5,-17789.5,
44.871,-1.5399916,0.205478492,9.660779,-0.0016123354,0.0011266135,-0.00339258784,30592.0,-16387.5,-17277.5,
44.991,-1.484925,0.195901692,9.658385,-0.0013458729,0.0019260049,-0.0008611949,30080.0,-16643.5,-18045.5,
45.110,-1.463377,0.23181471,9.691904,-0.0022784918,6.0766936e-05,-0.0016605817,31104.0,-16131.5,-17789.5,
45.228,-1.5232322,0.174353868,9.677539,-0.004676655,0.0012598485,-0.0019270442,29824.0,-16643.5,-18557.5,
45.347,-1.5375974,0.2222379,9.620077,-0.00067971648,-0.0015380084,0.0012705056,30592.0,-16387.5,-17789.5,
45.469,-1.5136554,0.2126611,9.682327,-0.006142199,0.0020592324,0.00087081176,30592.0,-16387.5,-18045.5,
45.586,-1.5615394,0.19111328,9.646414,-0.0037440508,0.00179276984,-0.000727963636,30336.0,-15875.5,-18045.5,
45.705,-1.4705598,0.2174495,9.655991,-0.003344342,0.0035247804,0.00073758052,31104.0,-16643.5,-19069.5,
45.823,-1.5304148,0.2198437,9.708663,-0.0021452606,0.001526311,0.0014037369,30592.0,-16899.5,-17789.5,
45.945,-1.532809,0.18871908,9.6488088,-0.0012126416,0.0023256988,-0.00046150108,30336.0,-16387.5,-18301.5,
46.068,-1.5591452,0.18153646,9.713451,0.0010522902,-0.0010050833,-0.0015273513,30336.0,-16131.5,-18301.5,
46.186,-1.4945018,0.15041184,9.725423,-0.0010794252,-0.00180447468,0.0018034298,31104.0,-16387.5,-18557.5,
46.305,-1.5064728,0.21026689,9.675144,-0.00081294776,0.0032583176,0.0016701994,30080.0,-16899.5,-18301.5,
46.424,-1.5304148,0.171959668,9.706269,-0.003344342,0.00059369208,-0.00339258784,30336.0,-15875.5,-17533.5,
46.549,-1.5543568,0.207872684,9.711058,-0.0032111108,-0.0060678684,0.00073758052,30336.0,-15619.5,-17789.5,
46.667,-1.496896,0.205478492,9.694298,-0.003344342,-0.0006053895,-0.0028596632,30080.0,-16131.5,-17789.5,
46.783,-1.5519626,0.205478492,9.653597,-0.0005464852,-0.000738620736,-0.0020602756,30336.0,-16387.5,-17789.5,
46.902,-1.5184438,0.21026689,9.720634,-0.00094617908,-0.0004721582,-0.0036590504,30592.0,-16387.5,-18557.5,
47.021,-1.508867,0.200690092,9.663174,-0.00520958,0.0011266135,0.0015369672,30592.0,-15875.5,-18301.5,
47.143,-1.4992902,0.2150553,9.59853,0.000919044,0.008587565,-0.0009944253,30336.0,-16643.5,-18301.5,
47.257,-1.5280206,0.21026689,9.732605,-0.00081294776,0.005656477,-0.0013941191,31104.0,-16131.5,-17533.5,
47.376,-1.520838,0.193507484,9.660779,-0.00347757336,0.0064558648,-0.00339258784,30592.0,-16387.5,-18557.5,
47.495,-1.520838,0.203084284,9.6488088,-0.00067971648,0.001526311,-0.0003282698,31104.0,-16387.5,-17789.5,
47.612,-1.5280206,0.236603108,9.711058,-0.0013458729,-0.0016712397,-0.0005947314,30336.0,-15875.5,-17021.5,
47.736,-1.5471742,0.18393066,9.694298,0.00065259636,-0.0015380084,0.0024695872,31104.0,-16131.5,-17789.5,
47.854,-1.5280206,0.2174495,9.725423,-0.0026781856,-0.0032700152,-0.0025932006,30592.0,-16899.5,-18301.5,
47.971,-1.4992902,0.200690092,9.663174,-0.0020120292,0.0012598485,-0.0013941191,30848.0,-16643.5,-17277.5,
48.090,-1.508867,0.22702632,9.691904,-0.0040104984,0.0024589264,-0.0048581316,30848.0,-15875.5,-17021.5,
48.206,-1.5543568,0.22702632,9.684721,-0.0054760424,0.0041909368,-0.006190444,30336.0,-16643.5,-18301.5,
48.327,-1.496896,0.16477707,9.605712,-1.3560057e-05,0.0044573956,0.0031357436,30336.0,-15875.5,-16765.5,
48.444,-1.5878756,0.15041184,9.62726,-0.0040104984,0.0028586238,0.0030025114,30848.0,-15363.5,-16765.5,
48.561,-1.5495684,0.195901692,9.663174,0.00065259636,0.000460457068,-0.0024599694,30848.0,-15619.5,-18557.5,
48.681,-1.5112612,0.205478492,9.641625,-0.00094617908,0.0024589264,-0.0028596632,31104.0,-16131.5,-17533.5,
48.800,-1.4921076,0.17674806,9.667962,-0.0057424904,0.0011266135,-0.0036590504,31104.0,-15363.5,-17789.5,
48.923,-1.5304148,0.193507484,9.64402,0.00065259636,0.0023256988,-0.0012608878,30080.0,-16387.5,-18045.5,
49.041,-1.4921076,0.19111328,9.641625,-0.002411738,0.008321103,-0.0003282698,30592.0,-15875.5,-17533.5,
49.156,-1.496896,0.2126611,9.696692,-0.0017455816,0.005123552,-0.001793813,30336.0,-16131.5,-18045.5,
49.270,-1.5160496,0.2222379,9.670356,-0.002811417,0.00179276984,-0.0013941191,30592.0,-15619.5,-18557.5,
49.393,-1.5016844,0.19111328,9.651202,-0.00414373,0.0041909368,-0.0013941191,30080.0,-15619.5,-17533.5,
49.509,-1.5112612,0.18153646,9.715846,0.000919044,-0.000738620736,-0.0028596632,30848.0,-15619.5,-18045.5,
49.626,-1.5663278,0.18871908,9.641625,-0.006675124,-0.000738620736,7.142406e-05,30080.0,-15875.5,-18301.5,
49.743,-1.484925,0.18153646,9.646414,-0.0030778944,0.003791239,0.0011372734,31104.0,-15363.5,-18301.5,
49.860,-1.4873192,0.19111328,9.660779,-0.004809886,0.0024589264,0.00073758052,30848.0,-15363.5,-18813.5,
49.982,-1.5136554,0.18153646,9.715846,-0.0016123354,0.0011266135,0.000337886632,30336.0,-16131.5,-18301.5,
50.101,-1.5064728,0.171959668,9.677539,-0.004676655,0.0044573956,7.142406e-05,30592.0,-15875.5,-18301.5,
50.218,-1.5136554,0.19111328,9.646414,-0.0010794252,0.001526311,-0.0031261258,30592.0,-15875.5,-18813.5,
50.335,-1.520838,0.203084284,9.71824,-0.0013458729,0.0036580116,-0.0035258192,30848.0,-15875.5,-19069.5,
50.452,-1.4657712,0.2222379,9.658385,-0.004809886,0.006589096,7.142406e-05,30592.0,-15875.5,-19581.5,
50.572,-1.5304148,0.15520026,9.720634,-0.0045434236,0.0045906304,-0.000727963636,30848.0,-15619.5,-18045.5,
50.691,-1.5064728,0.203084284,9.739788,-0.0005464852,-0.004469093,-0.000727963636,30848.0,-15363.5,-18301.5,
50.809,-1.5256264,0.18153646,9.639232,-0.00081294776,-0.00273709,-0.00046150108,30848.0,-15363.5,-17789.5,
50.926,-1.5040786,0.18632488,9.675144,-0.0062754304,-0.004469093,-0.0052578252,30848.0,-14851.5,-18045.5,
51.043,-1.484925,0.195901692,9.663174,-0.0022784918,0.006589096,0.0014037369,31104.0,-15619.5,-18557.5,
51.166,-1.5399916,0.19111328,9.600924,-0.0060089676,0.0016595423,0.0020698932,30848.0,-16131.5,-17533.5,
51.283,-1.5184438,0.18632488,9.64402,-0.0053428112,0.0028586238,0.001004043,30336.0,-15619.5,-18301.5,
51.400,-1.520838,0.205478492,9.732605,-0.00014679134,-0.0034032464,0.0039351304,30848.0,-15875.5,-17789.5,
51.518,-1.5160496,0.2174495,9.658385,-0.0005464852,-0.0010050833,-0.0015273513,31360.0,-15619.5,-18301.5,
51.635,-1.5471742,0.16717127,9.703875,-0.0038772672,0.0032583176,-0.0011276575,30080.0,-16387.5,-18557.5,
51.759,-1.4992902,0.23181471,9.665567,-0.00414373,0.0031250828,0.0015369672,30592.0,-15619.5,-18045.5,
51.877,-1.4992902,0.18871908,9.682327,-0.004676655,0.006589096,0.002336355,30080.0,-15363.5,-18045.5,
51.992,-1.5878756,0.21026689,9.670356,-0.007874206,0.0012598485,-0.0003282698,30848.0,-15875.5,-17789.5,
52.110,-1.5352032,0.18153646,9.703875,-0.00067971648,0.005256787,-0.0015273513,31104.0,-15619.5,-16509.5,
52.227,-1.5112612,0.203084284,9.605712,-0.0013458729,0.0049903208,-0.0001950385,30336.0,-15363.5,-17789.5,
52.351,-1.5399916,0.17674806,9.651202,-0.0021452606,0.0043241644,0.0018034298,30336.0,-15363.5,-18557.5,
52.469,-1.580693,0.205478492,9.634443,-0.0022784918,-0.0035364776,-0.0009944253,30848.0,-15619.5,-17789.5,
52.586,-1.5256264,0.22702632,9.646414,-0.0045434236,0.0012598485,-0.002326738,30080.0,-15619.5,-17533.5,
52.703,-1.5112612,0.169565468,9.684721,0.0013187528,0.0033915452,-6.180722e-05,30080.0,-15363.5,-18557.5,
52.821,-1.520838,0.2150553,9.646414,-0.006541893,0.0016595423,-0.0020602756,30336.0,-16131.5,-17533.5,
52.942,-1.532809,0.241391508,9.701481,-0.0026781856,0.0008601546,-0.0016605817,30592.0,-15619.5,-18301.5,
53.060,-1.4945018,0.236603108,9.725423,-0.008407116,0.00059369208,-0.002726432,30592.0,-15363.5,-17533.5,
53.177,-1.5399916,0.2126611,9.608107,-0.00347757336,0.0057897084,-0.0016605817,31104.0,-15619.5,-17277.5,
53.295,-1.484925,0.19111328,9.701481,-0.00081294776,-0.0006053895,0.001004043,30592.0,-15107.5,-18557.5,
53.416,-1.5040786,0.18153646,9.667962,-0.003344342,0.0024589264,-0.0012608878,30336.0,-14595.5,-18301.5,
53.533,-1.4945018,0.2126611,9.639232,0.0002528876,0.003924474,-0.0015273513,30336.0,-15875.5,-19069.5,
53.648,-1.5471742,0.18632488,9.723028,-0.0050763636,0.0020592324,0.0030025114,30336.0,-15619.5,-17789.5,
53.765,-1.508867,0.241391508,9.64402,-0.00361080468,0.0020592324,-0.004191975,30848.0,-15875.5,-17533.5,
53.883,-1.5352032,0.2198437,9.667962,-0.00028002262,0.0013930798,7.142406e-05,30336.0,-15363.5,-18301.5,
54.005,-1.5160496,0.174353868,9.670356,-0.0026781856,0.0013930798,-0.0031261258,30080.0,-16131.5,-17533.5,
54.124,-1.4490118,0.22942052,9.634443,-0.0004132688,0.001526311,-0.0020602756,30848.0,-15875.5,-17533.5,
54.240,-1.4777424,0.207872684,9.634443,-0.0062754304,0.0011266135,-0.0019270442,30336.0,-16387.5,-16765.5,
54.359,-1.4992902,0.174353868,9.634443,-0.0030778944,0.0032583176,0.0006043492,30848.0,-16131.5,-18045.5,
54.477,-1.5040786,0.198295884,9.651202,-0.001878798,0.0028586238,0.0014037369,30080.0,-16131.5,-17789.5,
54.601,-1.5304148,0.18393066,9.653597,-0.0025449544,-0.0023373962,-0.002326738,30848.0,-15875.5,-17021.5,
54.718,-1.472954,0.193507484,9.632049,-0.0017455816,0.0027253888,0.0020698932,31104.0,-15619.5,-18301.5,
54.836,-1.5352032,0.2126611,9.679933,0.0017184466,0.00179276984,0.0024695872,30592.0,-16131.5,-17533.5,
54.953,-1.5280206,0.24617992,9.67275,-0.0057424904,0.0013930798,0.00047111884,30592.0,-15107.5,-17021.5,
55.070,-1.5256264,0.15759446,9.679933,0.0030507594,0.0019260049,0.000337886632,30848.0,-15619.5,-17533.5,
55.196,-1.5016844,0.2198437,9.696692,0.0005193651,0.0035247804,-0.0012608878,30336.0,-15619.5,-18557.5,
55.314,-1.5040786,0.17674806,9.600924,-0.0038772672,0.0023256988,-0.004191975,30592.0,-15619.5,-17789.5,
55.431,-1.5399916,0.18393066,9.646414,-0.0032111108,0.000460457068,-0.0043252064,30848.0,-15875.5,-18813.5,
55.549,-1.532809,0.19111328,9.58177,-0.002411738,-0.000738620736,-0.0016605817,30592.0,-16131.5,-18813.5,
55.666,-1.5471742,0.195901692,9.629655,0.000119671224,0.0049903208,0.00020465534,30336.0,-16131.5,-17789.5,
55.792,-1.5112612,0.198295884,9.608107,-0.0045434236,0.0043241644,-0.005124594,30336.0,-16131.5,-18557.5,
55.910,-1.5280206,0.18871908,9.699086,-0.002811417,-0.0012715459,-0.0024599694,30848.0,-16131.5,-18557.5,
56.027,-1.5423858,0.169565468,9.701481,-0.00028002262,0.0049903208,0.003268974,30336.0,-16131.5,-18301.5,
56.145,-1.5352032,0.19111328,9.658385,-0.0005464852,0.0016595423,0.00193666116,30848.0,-16131.5,-18813.5,
56.263,-1.5136554,0.198295884,9.682327,-0.0020120292,-0.0004721582,-6.180722e-05,30336.0,-16131.5,-18301.5,
56.386,-1.5399916,0.174353868,9.706269,0.0003861338,0.00059369208,0.0014037369,30336.0,-16131.5,-18557.5,
56.504,-1.5160496,0.18632488,9.646414,-0.0062754304,0.0029918552,-0.0005947314,30592.0,-16387.5,-17789.5,
56.621,-1.54478,0.18632488,9.687116,-0.0060089676,0.0019260049,-0.002726432,30336.0,-15875.5,-19069.5,
56.737,-1.5160496,0.2126611,9.622472,-0.0038772672,-0.0022041648,7.142406e-05,31104.0,-15875.5,-18045.5,
56.853,-1.5160496,0.171959668,9.677539,-0.0049431176,0.005123552,0.00047111884,30848.0,-15875.5,-17533.5,
56.977,-1.556751,0.207872684,9.71824,-0.008940056,0.0041909368,-0.0003282698,30336.0,-16131.5,-18045.5,
57.093,-1.508867,0.205478492,9.655991,0.000785827636,0.0053900144,0.00087081176,30592.0,-15875.5,-17277.5,
57.212,-1.5136554,0.19111328,9.653597,-0.0005464852,0.0009933859,-0.002726432,30592.0,-15619.5,-17789.5,
57.328,-1.5256264,0.200690092,9.632049,-0.003344342,0.0064558648,-0.0031261258,30336.0,-15875.5,-18045.5,
57.458,-1.4897134,0.15998866,9.694298,-1.3560057e-05,0.0009933859,-0.0020602756,30592.0,-15875.5,-16765.5,
57.575,-1.5184438,0.15520026,9.71824,-0.00081294776,0.006056171,-0.0021935068,30848.0,-16131.5,-17789.5,
57.692,-1.496896,0.16477707,9.64402,-0.0040104984,0.0013930798,0.0035354364,30592.0,-16131.5,-17789.5,
57.808,-1.5112612,0.19111328,9.701481,-0.002811417,0.0009933859,-0.0001950385,30336.0,-15875.5,-18045.5,
57.924,-1.4873192,0.2198437,9.658385,0.000119671224,0.0012598485,0.0040683616,30592.0,-16643.5,-18045.5,
58.054,-1.5423858,0.2126611,9.653597,-0.0022784918,0.0043241644,-0.0025932006,30336.0,-16131.5,-18045.5,
58.172,-1.496896,0.193507484,9.682327,-0.00014679134,-0.0010050833,-0.0019270442,31104.0,-16131.5,-17789.5,
58.290,-1.4992902,0.23181471,9.670356,-0.0005464852,0.0041909368,-0.0028596632,30080.0,-15619.5,-17789.5,
58.408,-1.4945018,0.22942052,9.703875,-0.00414373,0.0019260049,0.0027360496,30592.0,-15619.5,-18301.5,
58.526,-1.532809,0.174353868,9.6488088,0.000119671224,0.005656477,-0.0013941191,29824.0,-15875.5,-18813.5,
58.651,-1.484925,0.193507484,9.679933,-0.00014679134,0.0067223272,-0.0005947314,30592.0,-15107.5,-19069.5,
58.769,-1.5304148,0.195901692,9.596135,-0.0053428112,0.0023256988,-0.0015273513,30848.0,-15363.5,-17277.5,
58.887,-1.54478,0.17914226,9.67275,-0.0013458729,0.006056171,0.00020465534,30848.0,-15107.5,-18813.5,
59.002,-1.5495684,0.2198437,9.694298,-0.0053428112,0.003791239,-0.0008611949,31104.0,-15875.5,-17533.5,
59.118,-1.5256264,0.2150553,9.703875,-0.0045434236,0.006189406,-0.0011276575,30592.0,-16131.5,-18301.5,
59.240,-1.5136554,0.18632488,9.636837,-0.00014679134,-0.0014047772,0.0011372734,30592.0,-16131.5,-17533.5,
59.358,-1.5352032,0.18153646,9.646414,-0.006142199,0.0036580116,-0.0012608878,30592.0,-16387.5,-17533.5,
59.474,-1.532809,0.18632488,9.732605,-0.0017455816,0.0041909368,-0.0021935068,29568.0,-16131.5,-17533.5,
59.591,-1.4921076,0.19111328,9.675144,-0.0017455816,0.0003272295,0.00047111884,31104.0,-15363.5,-17789.5,
59.707,-1.5830872,0.17914226,9.754153,-0.0040104984,-0.000738620736,-0.0003282698,30336.0,-15875.5,-18813.5,
59.831,-1.520838,0.2150553,9.67275,-0.005609274,-0.000738620736,-0.0016605817,31104.0,-15875.5,-17533.5,
59.947,-1.4945018,0.15041184,9.663174,-0.0012126416,0.0043241644,7.142406e-05,30592.0,-16387.5,-18557.5,
60.063,-1.5399916,0.169565468,9.682327,0.002384603,0.0040577016,0.000337886632,30080.0,-16643.5,-18301.5,
60.181,-1.532809,0.23181471,9.636837,-0.0049431176,0.00072692332,0.00047111884,30848.0,-16899.5,-17277.5,
60.299,-1.5495684,0.174353868,9.691904,-0.0012126416,0.003791239,-0.0021935068,30592.0,-15875.5,-18301.5,
60.423,-1.5256264,0.22702632,9.675144,-0.0062754304,0.003791239,0.0006043492,29824.0,-16387.5,-18301.5,
60.538,-1.496896,0.195901692,9.687116,-0.00347757336,0.0021924674,-0.0015273513,30848.0,-16131.5,-18045.5,
60.656,-1.484925,0.24378572,9.658385,-0.0017455816,0.0063226336,-0.0040587444,30336.0,-16643.5,-17533.5,
60.772,-1.4921076,0.193507484,9.641625,-0.00028002262,0.0036580116,-0.0024599694,31104.0,-16387.5,-17533.5,
60.897,-1.5304148,0.198295884,9.687116,-0.0037440508,0.000460457068,-0.00046150108,30848.0,-15619.5,-17533.5,
61.016,-1.5232322,0.200690092,9.679933,-0.00361080468,0.0027253888,0.00020465534,30592.0,-15619.5,-18813.5,
61.136,-1.5735104,0.195901692,9.612895,-0.00347757336,0.0033915452,0.00087081176,30848.0,-16387.5,-17277.5,
61.256,-1.5352032,0.18393066,9.727817,-0.0029446482,0.0024589264,-0.0016605817,30848.0,-16387.5,-17789.5,
61.373,-1.5399916,0.21026689,9.641625,-0.006142199,0.001526311,0.0018034298,31104.0,-16899.5,-18301.5,
61.496,-1.484925,0.15041184,9.663174,-0.002411738,0.003924474,-0.0019270442,30592.0,-16387.5,-19069.5,
61.610,-1.508867,0.15759446,9.684721,-0.0049431176,0.0055232496,-0.0003282698,30592.0,-16131.5,-18301.5,
61.727,-1.5304148,0.2150553,9.596135,-0.0022784918,0.00072692332,0.00047111884,30592.0,-16131.5,-18045.5,
61.844,-1.5256264,0.203084284,9.67275,-0.003344342,0.006589096,-0.0011276575,30336.0,-15619.5,-17789.5,
61.960,-1.508867,0.19111328,9.600924,-0.006541893,0.0031250828,-0.0024599694,30848.0,-15875.5,-18557.5,
62.082,-1.5136554,0.195901692,9.679933,0.00065259636,0.001526311,-0.0031261258,30592.0,-15619.5,-17277.5,
62.200,-1.532809,0.18153646,9.665567,0.0021181404,0.00179276984,-0.0031261258,30336.0,-15619.5,-18557.5,
62.319,-1.520838,0.26293932,9.624866,-0.0057424904,0.004723858,0.000337886632,30592.0,-15363.5,-17789.5,
62.435,-1.5471742,0.2174495,9.694298,0.0002528876,0.0012598485,0.0011372734,30336.0,-15875.5,-17533.5,
62.552,-1.556751,0.207872684,9.653597,-0.0038772672,0.0013930798,-0.0008611949,30848.0,-16131.5,-18045.5,
62.675,-1.5160496,0.18153646,9.603318,-0.0045434236,-0.0012715459,0.00087081176,30336.0,-16131.5,-17533.5,
62.793,-1.4992902,0.15998866,9.663174,0.0003861338,0.0029918552,-0.00046150108,30336.0,-16387.5,-16765.5,
62.910,-1.5352032,0.205478492,9.67275,-0.0014791042,-0.0016712397,-0.0036590504,31104.0,-15619.5,-17533.5,
63.028,-1.5304148,0.2150553,9.651202,-0.0014791042,0.0019260049,0.001004043,29824.0,-16387.5,-17277.5,
63.146,-1.4992902,0.205478492,9.670356,-0.0045434236,0.0035247804,-0.003925513,30592.0,-15619.5,-18045.5,
63.271,-1.4945018,0.203084284,9.677539,0.0002528876,0.0025921612,-0.001793813,30080.0,-16131.5,-18301.5,
63.388,-1.5256264,0.193507484,9.658385,-0.0026781856,0.0033915452,0.0012705056,30592.0,-15619.5,-17533.5,
63.507,-1.4921076,0.171959668,9.632049,-0.0032111108,0.003791239,-0.0009944253,30592.0,-15875.5,-18045.5,
63.624,-1.5471742,0.16238287,9.689509,0.0019849092,0.0009933859,-0.0009944253,30848.0,-16387.5,-18301.5,
63.741,-1.5375974,0.195901692,9.651202,-0.0049431176,0.0009933859,-0.0045916692,30848.0,-15875.5,-17277.5,
63.865,-1.4992902,0.2126611,9.703875,-0.00081294776,0.00179276984,0.00047111884,30592.0,-15875.5,-18045.5,
63.983,-1.5232322,0.2174495,9.59853,0.000119671224,-0.00273709,0.0011372734,30848.0,-16131.5,-17789.5,
64.099,-1.5136554,0.15759446,9.660779,-0.0013458729,0.00698879,0.00087081176,30848.0,-16131.5,-18813.5,
64.216,-1.5352032,0.21026689,9.584165,-0.0010794252,0.0055232496,-6.180722e-05,30848.0,-16643.5,-18301.5,
64.334,-1.4921076,0.236603108,9.605712,-0.0053428112,0.0028586238,0.000337886632,30336.0,-16643.5,-19069.5,
64.459,-1.5040786,0.17914226,9.655991,-0.00414373,0.0023256988,-0.00339258784,30336.0,-16131.5,-18557.5,
64.577,-1.5304148,0.198295884,9.653597,0.0010522902,0.006056171,-0.0012608878,30592.0,-15875.5,-17533.5,
64.695,-1.496896,0.22942052,9.624866,-0.0016123354,0.0028586238,0.001004043,30592.0,-16131.5,-17533.5,
64.811,-1.4897134,0.195901692,9.713451,-0.008140668,0.0012598485,-0.0019270442,30592.0,-15875.5,-17789.5,
64.936,-1.5591452,0.19111328,9.586558,-0.002811417,0.0012598485,-0.0037922818,30848.0,-15619.5,-18557.5,
65.054,-1.5256264,0.195901692,9.567405,-0.007074803,0.0027253888,0.00087081176,30080.0,-15875.5,-18557.5,
65.172,-1.5184438,0.193507484,9.679933,-0.006142199,0.0019260049,-0.005657519,30848.0,-16131.5,-17277.5,
65.291,-1.5304148,0.18632488,9.682327,-0.0026781856,0.0009933859,-0.0043252064,31104.0,-16131.5,-18045.5,
65.408,-1.5232322,0.2246321,9.687116,-0.0050763636,0.0024589264,-0.0021935068,31104.0,-16131.5,-17789.5,
65.531,-1.5495684,0.17674806,9.713451,-0.0045434236,0.003924474,-0.0012608878,30336.0,-16131.5,-17789.5,
65.648,-1.5280206,0.15280604,9.634443,0.000785827636,0.0021924674,0.003268974,30848.0,-15875.5,-18557.5,
65.766,-1.556751,0.18393066,9.658385,0.0010522902,-0.0004721582,0.00047111884,30336.0,-15619.5,-19069.5,
65.882,-1.5064728,0.2126611,9.689509,-0.0040104984,0.0031250828,-6.180722e-05,31104.0,-15107.5,-18557.5,
65.998,-1.5136554,0.207872684,9.691904,0.001451984,0.0021924674,-0.0031261258,30336.0,-16643.5,-18045.5,
66.122,-1.508867,0.18632488,9.687116,-0.00361080468,0.004857093,-0.0008611949,30848.0,-16131.5,-17789.5,
66.238,-1.5040786,0.18393066,9.663174,-0.0017455816,0.001526311,-0.002726432,30592.0,-16643.5,-17533.5,
66.354,-1.5112612,0.14801764,9.64402,0.0005193651,0.0029918552,-0.00046150108,30592.0,-16131.5,-17533.5,
66.470,-1.4801366,0.2150553,9.574588,-0.003344342,-0.0010050833,-0.0047249004,31360.0,-16131.5,-17021.5,
66.586,-1.496896,0.19111328,9.677539,-0.002811417,0.0027253888,0.0016701994,31104.0,-16131.5,-18557.5,
66.708,-1.5064728,0.198295884,9.689509,-0.004809886,0.0033915452,-0.0005947314,30848.0,-15875.5,-18301.5,
66.825,-1.4921076,0.2222379,9.62726,0.0025178344,0.00019399822,0.0027360496,31104.0,-15619.5,-18557.5,
66.942,-1.5112612,0.21026689,9.658385,-0.004276961,0.00059369208,-0.0001950385,30080.0,-16387.5,-18557.5,
67.060,-1.5471742,0.193507484,9.641625,-0.004809886,0.0012598485,-6.180722e-05,31104.0,-16387.5,-18301.5,
67.177,-1.5280206,0.195901692,9.67275,-0.007474512,0.0020592324,0.001004043,31104.0,-15619.5,-17533.5,
67.299,-1.568722,0.171959668,9.675144,0.0011855215,0.0049903208,-0.004458438,30592.0,-16131.5,-17533.5,
67.416,-1.532809,0.2222379,9.682327,-0.0068083555,-0.000205695632,-0.0024599694,30848.0,-16387.5,-18045.5,
67.535,-1.5184438,0.2198437,9.687116,-0.0025449544,0.0035247804,0.00047111884,30592.0,-15875.5,-18045.5,
67.653,-1.5112612,0.195901692,9.667962,-0.004809886,-0.0006053895,0.0022031236,30592.0,-15875.5,-18557.5,
67.770,-1.4825308,0.15520026,9.651202,-0.00520958,0.0033915452,-0.0011276575,30336.0,-16131.5,-17789.5,
67.892,-1.508867,0.17674806,9.665567,-0.0022784918,0.0027253888,0.00286928,31104.0,-15875.5,-18045.5,
68.008,-1.5040786,0.2150553,9.660779,-0.001878798,0.0044573956,-0.0008611949,30848.0,-15619.5,-17021.5,
68.124,-1.520838,0.198295884,9.694298,-0.00361080468,0.0019260049,0.00047111884,30848.0,-15875.5,-18045.5,
68.244,-1.5064728,0.200690092,9.641625,0.0005193651,0.00059369208,0.000337886632,30848.0,-16131.5,-16253.5,
68.364,-1.5304148,0.16477707,9.701481,-0.0029446482,-0.000871852064,-0.0016605817,30592.0,-15363.5,-18045.5,
68.495,-1.520838,0.203084284,9.665567,-0.00774095936,0.00059369208,-0.0001950385,30592.0,-16131.5,-18301.5,
68.613,-1.5160496,0.205478492,9.703875,-0.0013458729,0.0024589264,0.000337886632,30336.0,-15875.5,-18045.5,
68.733,-1.532809,0.236603108,9.667962,-0.0032111108,-0.000205695632,0.00047111884,30336.0,-15619.5,-18813.5,
68.852,-1.5495684,0.16477707,9.670356,-0.003344342,0.0012598485,-0.0003282698,30592.0,-15363.5,-18301.5,
68.974,-1.4609828,0.18871908,9.653597,-0.0017455816,0.00059369208,-0.0005947314,30848.0,-16131.5,-18045.5,
69.091,-1.5352032,0.2126611,9.691904,-0.0020120292,0.00019399822,0.0006043492,30592.0,-16131.5,-18557.5,
69.207,-1.5399916,0.27251612,9.71824,-1.3560057e-05,0.0067223272,-0.0016605817,30848.0,-15875.5,-17277.5,
69.325,-1.5256264,0.2198437,9.725423,-0.010538831,-0.000205695632,-0.0020602756,30592.0,-16131.5,-18301.5,
69.443,-1.520838,0.16717127,9.665567,-0.003344342,-0.000205695632,-0.004458438,30336.0,-15619.5,-17789.5,
69.566,-1.5232322,0.205478492,9.596135,-0.0050763636,0.0063226336,0.00193666116,30848.0,-16131.5,-17789.5,
69.686,-1.5375974,0.195901692,9.67275,-0.010005906,0.0032583176,-0.003259357,30336.0,-16387.5,-17533.5,
69.803,-1.5352032,0.14562344,9.651202,-0.00361080468,0.0049903208,-0.0016605817,30848.0,-16387.5,-18557.5,
69.921,-1.4873192,0.205478492,9.603318,-0.00520958,0.0003272295,0.00073758052,30592.0,-15875.5,-18813.5,
70.038,-1.5112612,0.2150553,9.59853,-0.002411738,0.004857093,0.00087081176,31104.0,-16131.5,-17789.5,
70.159,-1.5304148,0.18632488,9.675144,-0.0053428112,0.0019260049,-0.0029928944,30080.0,-15875.5,-18813.5,
70.278,-1.4777424,0.19111328,9.639232,-0.0026781856,0.0045906304,-0.0015273513,30336.0,-15619.5,-17789.5,
70.395,-1.5423858,0.21026689,9.629655,-0.0040104984,-0.0030035526,-0.004191975,30848.0,-16131.5,-18557.5,
70.514,-1.5352032,0.198295884,9.703875,-0.004276961,0.006589096,-0.0019270442,30336.0,-16131.5,-18301.5,
70.631,-1.5064728,0.2198437,9.658385,-0.003344342,0.0040577016,-0.0012608878,30848.0,-15875.5,-17277.5,
70.753,-1.4825308,0.21026689,9.71824,-0.007474512,0.0011266135,-0.0001950385,31104.0,-16131.5,-18045.5,
70.870,-1.4609828,0.19111328,9.689509,-0.0044102072,0.0024589264,-0.0052578252,30336.0,-15875.5,-17533.5,
70.988,-1.5160496,0.16717127,9.713451,-0.001878798,0.0024589264,-0.0005947314,30848.0,-15875.5,-16253.5,
71.104,-1.5304148,0.18153646,9.701481,-1.3560057e-05,0.0041909368,-0.00046150108,30080.0,-15619.5,-17533.5,
71.222,-1.5064728,0.22942052,9.622472,0.001451984,0.0032583176,-0.0001950385,31104.0,-16131.5,-17277.5,
71.344,-1.5016844,0.15998866,9.682327,-0.00694158636,0.0025921612,0.0018034298,30848.0,-15875.5,-17533.5,
71.463,-1.5160496,0.17674806,9.71824,0.0002528876,-0.0012715459,-0.0020602756,30848.0,-16131.5,-17277.5,
71.579,-1.5304148,0.17914226,9.715846,0.00358368436,-0.0023373962,-0.004191975,30848.0,-15619.5,-18557.5,
71.697,-1.520838,0.200690092,9.622472,-0.0040104984,-0.0023373962,0.0015369672,30848.0,-16387.5,-17533.5,
71.815,-1.5040786,0.18393066,9.670356,-0.0030778944,0.0025921612,-0.0015273513,30592.0,-15875.5,-18557.5,
71.938,-1.5136554,0.205478492,9.6488088,-0.0020120292,0.00019399822,-0.0001950385,30592.0,-16643.5,-17277.5,
72.057,-1.5280206,0.234208916,9.617683,-0.001878798,0.010186341,-0.0016605817,29568.0,-16131.5,-17533.5,
72.175,-1.508867,0.19111328,9.677539,-0.0020120292,0.0019260049,-0.002726432,30848.0,-15875.5,-17533.5,
72.293,-1.5136554,0.18871908,9.620077,-0.001878798,0.0019260049,-0.0013941191,30848.0,-15875.5,-17789.5,
72.411,-1.508867,0.21026689,9.682327,-0.0021452606,0.004857093,0.00087081176,30592.0,-15619.5,-17533.5,
72.535,-1.4992902,0.17914226,9.679933,-0.00520958,-0.0015380084,-0.0015273513,31104.0,-16387.5,-18045.5,
72.652,-1.5352032,0.198295884,9.646414,0.0010522902,-0.0004721582,-0.0024599694,31104.0,-15875.5,-17789.5,
72.769,-1.5495684,0.2126611,9.663174,-0.0040104984,-0.000871852064,-0.0011276575,30592.0,-16387.5,-17789.5,
72.887,-1.532809,0.23181471,9.706269,-0.0013458729,0.0040577016,-0.0045916692,31104.0,-15619.5,-18301.5,
73.011,-1.5112612,0.2222379,9.655991,-0.0010794252,-0.000205695632,-6.180722e-05,31104.0,-15875.5,-18301.5,
73.129,-1.5184438,0.17674806,9.675144,-0.0022784918,-0.000871852064,-0.00046150108,30848.0,-16131.5,-17789.5,
73.247,-1.5136554,0.171959668,9.754153,-0.0054760424,0.0064558648,0.0018034298,30848.0,-16131.5,-18813.5,
73.365,-1.5184438,0.203084284,9.737393,-0.0022784918,0.004723858,0.00087081176,30080.0,-15875.5,-18045.5,
73.483,-1.5471742,0.22942052,9.6488088,-0.002811417,0.0021924674,7.142406e-05,30080.0,-16131.5,-17789.5,
73.621,-1.496896,0.17674806,9.689509,-0.0049431176,-0.00180447468,-0.0003282698,31360.0,-16131.5,-18557.5,
73.738,-1.5280206,0.18632488,9.670356,-0.0057424904,0.0008601546,-0.0008611949,30848.0,-15619.5,-18045.5,
73.855,-1.5136554,0.18871908,9.687116,-0.002411738,0.0032583176,0.001004043,31104.0,-15875.5,-18301.5,
73.971,-1.4897134,0.17674806,9.663174,-0.001878798,0.00059369208,-0.0025932006,30848.0,-16387.5,-17277.5,
74.088,-1.5423858,0.15759446,9.658385,-0.0044102072,-0.000738620736,0.000337886632,30848.0,-15875.5,-18045.5,
74.214,-1.4945018,0.22942052,9.663174,-0.010672063,-0.0024706236,-0.0019270442,30592.0,-16131.5,-17789.5,
74.331,-1.4322524,0.16477707,9.651202,-0.00520958,0.0045906304,0.000337886632,30848.0,-15619.5,-17533.5,
74.449,-1.4921076,0.200690092,9.677539,-0.0016123354,0.003924474,-0.001793813,31104.0,-16387.5,-17533.5,
74.566,-1.508867,0.2246321,9.646414,-0.0021452606,0.00019399822,-0.003925513,30592.0,-15875.5,-17533.5,
74.682,-1.5256264,0.174353868,9.687116,-0.00028002262,-0.000205695632,-0.004191975,31104.0,-15619.5,-16509.5,
74.807,-1.5256264,0.2174495,9.646414,-0.0064086468,0.006189406,-0.0021935068,30592.0,-15619.5,-17533.5,
74.922,-1.5399916,0.18393066,9.689509,-0.0032111108,0.0053900144,-0.0043252064,31104.0,-15619.5,-17789.5,
75.040,-1.54478,0.15280604,9.655991,0.0013187528,0.0032583176,0.00073758052,30848.0,-15619.5,-17533.5,
75.156,-1.496896,0.236603108,9.682327,0.000119671224,0.004723858,0.001004043,30592.0,-15875.5,-17533.5,
75.273,-1.532809,0.18632488,9.699086,-0.0064086468,0.003791239,0.002336355,30848.0,-16131.5,-18557.5,
75.394,-1.520838,0.18632488,9.703875,-0.008407116,-0.000738620736,0.001004043,30592.0,-15619.5,-18045.5,
75.511,-1.5495684,0.16477707,9.682327,-0.0050763636,0.0049903208,-0.0024599694,30848.0,-15619.5,-18301.5,
75.629,-1.508867,0.171959668,9.667962,-0.0026781856,-0.000738620736,-0.0005947314,30592.0,-16131.5,-17533.5,
75.747,-1.5016844,0.198295884,9.632049,0.0002528876,0.0031250828,-0.0025932006,31104.0,-15619.5,-18301.5,
75.865,-1.4897134,0.15759446,9.651202,-0.002411738,0.0008601546,-0.0001950385,30848.0,-15619.5,-19069.5,
75.987,-1.5064728,0.15759446,9.684721,-0.0026781856,0.0028586238,0.00073758052,30848.0,-16131.5,-17789.5,
76.105,-1.5352032,0.207872684,9.622472,0.0010522902,0.0032583176,-0.0003282698,31104.0,-15363.5,-17789.5,
76.222,-1.5304148,0.19111328,9.682327,-0.0062754304,-0.0004721582,-0.0019270442,30848.0,-16131.5,-17533.5,
76.339,-1.5136554,0.169565468,9.634443,-0.0021452606,-0.0014047772,-0.0009944253,31104.0,-15875.5,-17789.5,
76.464,-1.496896,0.17914226,9.708663,-0.0012126416,0.003791239,0.0015369672,30848.0,-15619.5,-18045.5,
76.580,-1.5375974,0.17674806,9.701481,-0.002811417,0.0044573956,-0.002326738,30080.0,-15619.5,-18557.5,
76.696,-1.5304148,0.16477707,9.703875,-0.0020120292,0.0016595423,-0.0040587444,30336.0,-16131.5,-18301.5,
76.814,-1.5112612,0.18632488,9.687116,-0.0092065184,-0.0022041648,-0.0013941191,30592.0,-16131.5,-18557.5,
76.931,-1.532809,0.17914226,9.679933,-0.0030778944,-0.0020709336,0.0034022052,30592.0,-16643.5,-19069.5,
77.054,-1.5399916,0.200690092,9.624866,-0.0057424904,0.00072692332,-0.0011276575,30848.0,-16131.5,-17533.5,
77.172,-1.5375974,0.207872684,9.725423,-0.001878798,0.0036580116,-0.0012608878,30336.0,-16387.5,-17021.5,
77.290,-1.520838,0.18393066,9.64402,-0.0054760424,0.0020592324,-0.0021935068,30848.0,-15875.5,-18301.5,
77.406,-1.5040786,0.169565468,9.701481,-0.001878798,0.00072692332,-0.0021935068,30080.0,-16131.5,-18301.5,
77.523,-1.508867,0.18393066,9.620077,-0.0029446482,0.0041909368,0.002336355,30848.0,-15619.5,-17789.5,
77.645,-1.5112612,0.2126611,9.670356,-0.0021452606,0.0029918552,-0.0005947314,31104.0,-15619.5,-18813.5,
77.761,-1.532809,0.198295884,9.593741,-0.0040104984,0.0024589264,-0.00046150108,31104.0,-16131.5,-17277.5,
77.879,-1.5639336,0.195901692,9.6105,-0.0021452606,0.0045906304,0.001004043,31104.0,-15619.5,-17789.5,
77.996,-1.5064728,0.18632488,9.624866,-0.0073412808,-0.0011383183,-0.0009944253,30848.0,-15875.5,-18301.5,
78.113,-1.5016844,0.205478492,9.691904,-0.0005464852,-0.000871852064,0.0011372734,30848.0,-16131.5,-17533.5,
78.237,-1.5064728,0.18871908,9.653597,-0.0044102072,0.001526311,-0.0028596632,30592.0,-15363.5,-17789.5,
78.353,-1.5160496,0.17914226,9.6488088,-0.00414373,-0.0003389269,0.0012705056,30592.0,-16387.5,-17533.5,
78.470,-1.5040786,0.203084284,9.6488088,-1.3560057e-05,0.0027253888,-6.180722e-05,30592.0,-16131.5,-18557.5,
78.589,-1.5471742,0.18393066,9.723028,-0.0032111108,0.0028586238,-0.0003282698,30336.0,-15875.5,-18045.5,
78.706,-1.4753482,0.200690092,9.624866,-0.00774095936,0.0053900144,0.0063332924,30336.0,-16131.5,-17021.5,
78.831,-1.5304148,0.205478492,9.632049,-0.0050763636,0.0035247804,0.0020698932,30848.0,-16387.5,-18045.5,
78.950,-1.5304148,0.193507484,9.675144,-0.0032111108,0.0041909368,-6.180722e-05,30592.0,-16643.5,-16765.5,
79.067,-1.5256264,0.25815094,9.67275,0.0017184466,0.001526311,-0.002326738,30592.0,-16387.5,-17789.5,
79.183,-1.556751,0.205478492,9.67275,0.00065259636,-0.0006053895,0.002336355,30848.0,-15875.5,-18301.5,
79.299,-1.5184438,0.15998866,9.636837,-0.0013458729,0.0019260049,-0.00339258784,30592.0,-15875.5,-17789.5,
79.426,-1.5112612,0.2150553,9.615289,-0.006142199,0.006589096,-0.002726432,30592.0,-16899.5,-17533.5,
79.540,-1.5280206,0.19111328,9.670356,-0.0005464852,0.0040577016,-0.0012608878,30592.0,-15875.5,-17021.5,
79.656,-1.5399916,0.203084284,9.651202,-0.0016123354,0.003791239,-0.003925513,30592.0,-16387.5,-17277.5,
79.779,-1.5304148,0.21026689,9.655991,-0.0057424904,0.0041909368,-0.0028596632,30592.0,-16387.5,-17789.5,
79.903,-1.5112612,0.198295884,9.730211,-0.0060089676,0.00059369208,-0.000727963636,30336.0,-16643.5,-17277.5,
80.023,-1.4945018,0.18632488,9.735,0.000119671224,0.00019399822,0.0006043492,30592.0,-16387.5,-17533.5,
80.141,-1.5399916,0.238997316,9.670356,-0.0021452606,0.005656477,0.0011372734,31104.0,-16899.5,-18813.5,
80.258,-1.496896,0.203084284,9.655991,-0.0054760424,0.0023256988,0.00073758052,30848.0,-16387.5,-17789.5,
80.375,-1.4992902,0.2150553,9.67275,-0.00361080468,0.0057897084,0.00193666116,31104.0,-16387.5,-17789.5,
80.499,-1.5375974,0.15998866,9.711058,-0.00520958,0.0067223272,-0.0021935068,30848.0,-16387.5,-16253.5,
80.615,-1.4897134,0.21026689,9.689509,-0.0029446482,0.0068555624,-0.0029928944,30336.0,-16643.5,-17021.5,
80.734,-1.4705598,0.17914226,9.677539,-0.0040104984,0.0008601546,-0.002726432,30592.0,-16387.5,-18557.5,
80.850,-1.484925,0.22942052,9.663174,-0.00414373,-0.0019377023,-0.0020602756,31104.0,-16643.5,-17789.5,
80.966,-1.54478,0.15998866,9.615289,-0.00067971648,0.006189406,-0.001793813,30080.0,-16643.5,-18557.5,
81.086,-1.5352032,0.18871908,9.723028,-0.0050763636,0.000460457068,0.000337886632,30080.0,-16899.5,-18557.5,
81.205,-1.4825308,0.205478492,9.71824,-0.00081294776,-0.0011383183,-0.0005947314,30336.0,-16387.5,-17533.5,
81.322,-1.532809,0.19111328,9.679933,-0.00081294776,0.0043241644,-0.000727963636,30592.0,-16387.5,-18301.5,
81.440,-1.4945018,0.18393066,9.694298,-0.0025449544,0.0009933859,-0.0009944253,30080.0,-16387.5,-18557.5,
81.557,-1.5112612,0.16238287,9.701481,-0.0040104984,-0.000205695632,0.0016701994,30592.0,-16131.5,-18045.5,
81.682,-1.5280206,0.17674806,9.636837,-0.0040104984,-0.0004721582,-0.00046150108,30080.0,-16643.5,-18557.5,
81.799,-1.5064728,0.205478492,9.720634,-0.004276961,-0.000738620736,-0.0043252064,30080.0,-15875.5,-17533.5,
81.917,-1.5112612,0.18153646,9.715846,-0.006675124,-0.0010050833,-0.0020602756,31104.0,-16643.5,-17789.5,
82.033,-1.5232322,0.193507484,9.6488088,-0.0045434236,0.0033915452,0.0011372734,30848.0,-16387.5,-17277.5,
82.153,-1.4945018,0.203084284,9.634443,-0.007074803,-0.0015380084,-0.0008611949,30848.0,-16643.5,-17277.5,
82.276,-1.5304148,0.2246321,9.694298,-0.0026781856,-0.0028703212,-0.001793813,30848.0,-15875.5,-18045.5,
82.392,-1.5280206,0.22702632,9.735,-0.0016123354,0.0021924674,-6.180722e-05,30336.0,-17155.5,-18045.5,
82.508,-1.5352032,0.18393066,9.64402,-0.003344342,0.0008601546,-6.180722e-05,31360.0,-16387.5,-17021.5,
82.623,-1.5280206,0.171959668,9.699086,-0.004809886,-0.000871852064,-0.0013941191,30592.0,-17155.5,-17789.5,
82.741,-1.4992902,0.18393066,9.588953,-0.0092065184,-0.0026038588,0.00193666116,30080.0,-16643.5,-17533.5,
82.865,-1.5591452,0.17914226,9.64402,0.0005193651,0.0019260049,-0.00046150108,30336.0,-16899.5,-18301.5,
82.983,-1.5471742,0.18632488,9.687116,-0.00014679134,-0.0016712397,-0.0015273513,30848.0,-16643.5,-17277.5,
83.101,-1.5256264,0.198295884,9.725423,-0.00081294776,0.00179276984,-0.00046150108,30592.0,-16643.5,-17533.5,
83.221,-1.5304148,0.203084284,9.691904,-0.0057424904,-0.0003389269,-0.0035258192,30848.0,-16643.5,-17021.5,
83.345,-1.5639336,0.169565468,9.658385,-0.0013458729,-0.0028703212,-0.002326738,30336.0,-16643.5,-18045.5,
83.463,-1.520838,0.18871908,9.679933,-0.0064086468,-0.0014047772,0.0006043492,30848.0,-16643.5,-17277.5,
83.578,-1.5184438,0.22702632,9.684721,-0.002411738,0.000460457068,-0.0024599694,30592.0,-16643.5,-18045.5,
83.696,-1.508867,0.15759446,9.651202,0.0019849092,0.0036580116,0.0022031236,30592.0,-17411.5,-17533.5,
83.813,-1.508867,0.18393066,9.675144,-0.0045434236,0.0068555624,0.0054006736,30848.0,-17155.5,-18557.5,
83.935,-1.520838,0.16717127,9.646414,-0.00361080468,-0.0004721582,-0.0016605817,30336.0,-16899.5,-18813.5,
84.052,-1.5040786,0.171959668,9.703875,-0.0026781856,-0.0004721582,-0.0029928944,30336.0,-17411.5,-18557.5,
84.170,-1.5064728,0.14801764,9.691904,-0.00028002262,0.0041909368,-0.0029928944,30080.0,-17155.5,-18301.5,
84.288,-1.532809,0.2150553,9.727817,-0.00520958,-0.0003389269,-0.0029928944,30336.0,-17155.5,-18045.5,
84.402,-1.5375974,0.205478492,9.694298,-0.00067971648,0.0008601546,-0.002326738,30080.0,-16899.5,-17789.5,
84.525,-1.5040786,0.193507484,9.646414,-0.00933975,-0.0023373962,-0.0005947314,30592.0,-16899.5,-17533.5,
84.641,-1.496896,0.18393066,9.696692,0.000785827636,0.00179276984,0.0014037369,30336.0,-17411.5,-18045.5,
84.760,-1.5136554,0.171959668,9.665567,0.00185167792,0.0028586238,-0.0009944253,30848.0,-16131.5,-18813.5,
84.879,-1.4705598,0.18632488,9.677539,-0.0004132688,0.0013930798,-0.0012608878,30336.0,-16131.5,-18045.5,
84.997,-1.4897134,0.17674806,9.711058,-0.004276961,-0.0003389269,0.0022031236,30848.0,-16643.5,-18045.5,
85.119,-1.5352032,0.2126611,9.720634,-0.004276961,0.00179276984,0.00020465534,30848.0,-17411.5,-17789.5,
85.236,-1.508867,0.2222379,9.653597,-0.0037440508,-0.0026038588,-0.00685660036,31104.0,-16643.5,-18045.5,
85.353,-1.5375974,0.13844084,9.715846,0.000785827636,-0.0006053895,-0.001793813,30592.0,-17155.5,-17277.5,
85.470,-1.5040786,0.169565468,9.658385,-0.0014791042,0.007921409,-0.003925513,30336.0,-16899.5,-18045.5,
85.587,-1.4945018,0.22702632,9.58177,0.000919044,0.0059229432,-0.0036590504,30592.0,-16643.5,-17021.5,
85.708,-1.5782988,0.200690092,9.723028,-0.001878798,0.0057897084,-0.003925513,30848.0,-17155.5,-18045.5,
85.824,-1.556751,0.15998866,9.706269,-0.0029446482,0.0003272295,0.0011372734,30848.0,-16899.5,-18045.5,
85.940,-1.5375974,0.22942052,9.670356,-0.0032111108,0.003791239,-0.0020602756,30336.0,-16643.5,-18045.5,
86.057,-1.5040786,0.14801764,9.670356,-0.0050763636,0.0043241644,-6.180722e-05,30592.0,-16387.5,-17789.5,
86.173,-1.4921076,0.205478492,9.732605,-0.0054760424,0.005123552,-0.0003282698,31104.0,-16387.5,-17277.5,
86.295,-1.5160496,0.15759446,9.773307,-0.0022784918,0.0013930798,-0.0040587444,30336.0,-17411.5,-16765.5,
86.413,-1.496896,0.200690092,9.679933,-0.0012126416,0.00179276984,0.003268974,30592.0,-16899.5,-18045.5,
86.531,-1.532809,0.195901692,9.646414,-0.00014679134,0.0009933859,-0.0012608878,30848.0,-16899.5,-17533.5,
86.649,-1.520838,0.18632488,9.67275,-0.00028002262,0.0020592324,-0.005524288,30848.0,-16899.5,-18557.5,
86.770,-1.5040786,0.18871908,9.620077,-0.004809886,0.00698879,-0.0028596632,30848.0,-16643.5,-17021.5,
86.885,-1.532809,0.205478492,9.660779,-0.004676655,0.0016595423,-0.00046150108,30848.0,-16387.5,-17533.5,
87.002,-1.5615394,0.18632488,9.667962,-0.0004132688,-0.000738620736,-0.0016605817,30848.0,-16131.5,-17533.5,
87.121,-1.5112612,0.18632488,9.605712,-0.006541893,0.001526311,0.00073758052,30848.0,-16131.5,-17533.5,
87.237,-1.496896,0.14562344,9.675144,-0.0012126416,0.0020592324,0.00073758052,30592.0,-17155.5,-18045.5,
87.358,-1.5639336,0.18632488,9.677539,-0.0032111108,0.0008601546,-6.180722e-05,30080.0,-17155.5,-17533.5,
87.474,-1.5280206,0.195901692,9.67275,-0.0049431176,0.0032583176,-0.0024599694,30592.0,-16899.5,-18813.5,
87.592,-1.484925,0.15520026,9.591347,-0.0054760424,0.0012598485,-0.001793813,30336.0,-16643.5,-18045.5,
87.708,-1.520838,0.195901692,9.799643,-0.0032111108,-0.0058014056,-0.0037922818,30592.0,-16387.5,-18301.5,
87.827,-1.5352032,0.22702632,9.761335,0.0019849092,-0.0052684844,-0.0013941191,30592.0,-16131.5,-17277.5,
87.950,-1.5112612,0.2246321,9.706269,0.00065259636,0.0028586238,-0.004458438,30080.0,-16643.5,-18557.5,
88.066,-1.4801366,0.18871908,9.675144,-0.00014679134,0.0009933859,0.0018034298,30848.0,-16899.5,-19069.5,
88.183,-1.5232322,0.193507484,9.670356,-0.0017455816,-0.0062011032,-0.0047249004,29824.0,-16899.5,-18301.5,
88.301,-1.54478,0.198295884,9.655991,-0.0026781856,0.0031250828,-0.0003282698,30592.0,-15875.5,-17789.5,
88.418,-1.4992902,0.2198437,9.660779,0.0011855215,0.005656477,0.0006043492,30592.0,-16387.5,-18045.5,
88.540,-1.5304148,0.198295884,9.711058,-0.0032111108,0.000460457068,-0.0013941191,30592.0,-16131.5,-18045.5,
88.659,-1.5304148,0.207872684,9.691904,-0.0049431176,0.0063226336,-0.0029928944,30592.0,-16131.5,-19325.5,
88.778,-1.4897134,0.207872684,9.677539,-0.0062754304,-0.0014047772,0.000337886632,31104.0,-16387.5,-18045.5,
88.898,-1.5112612,0.205478492,9.675144,-0.0022784918,-0.0023373962,-0.0028596632,30592.0,-16643.5,-18045.5,
89.016,-1.5854814,0.193507484,9.634443,-0.00347757336,0.0013930798,-0.0015273513,30592.0,-16131.5,-17533.5,
89.142,-1.508867,0.18871908,9.71824,-1.3560057e-05,-0.0022041648,0.0026028176,30336.0,-16387.5,-17533.5,
89.258,-1.5184438,0.18632488,9.655991,-0.00361080468,0.00179276984,-0.0012608878,30336.0,-16387.5,-18045.5,
89.378,-1.5280206,0.15041184,9.691904,-0.004276961,0.0076549464,-0.0005947314,30848.0,-16131.5,-17021.5,
89.494,-1.5352032,0.18871908,9.675144,-0.003344342,-0.0019377023,-0.0019270442,30848.0,-16643.5,-17533.5,
89.611,-1.5160496,0.15280604,9.758942,-0.0045434236,0.0021924674,-0.0024599694,30592.0,-16387.5,-18045.5,
89.735,-1.5352032,0.18632488,9.646414,-0.00361080468,0.0044573956,0.0006043492,30848.0,-16387.5,-18045.5,
89.852,-1.496896,0.195901692,9.684721,0.0015852153,0.0035247804,-0.0005947314,30592.0,-16643.5,-18813.5,
89.971,-1.5471742,0.15041184,9.694298,-0.001878798,6.0766936e-05,-0.0011276575,30848.0,-17155.5,-17533.5,
90.088,-1.5256264,0.17674806,9.663174,0.0002528876,0.0032583176,-0.0001950385,30080.0,-16387.5,-19325.5,
90.210,-1.532809,0.15759446,9.715846,-0.0054760424,0.0040577016,-0.001793813,30592.0,-16387.5,-18557.5,
90.326,-1.5256264,0.17914226,9.612895,-0.00520958,-0.0006053895,-0.0008611949,30592.0,-16387.5,-18045.5,
90.441,-1.4921076,0.18393066,9.670356,-0.0038772672,-0.0022041648,-0.0003282698,30080.0,-16387.5,-17789.5,
90.557,-1.5160496,0.195901692,9.655991,-0.0040104984,0.009386953,-0.0031261258,31104.0,-16899.5,-18813.5,
90.674,-1.520838,0.2174495,9.679933,0.0013187528,0.0063226336,0.00073758052,30848.0,-16643.5,-18301.5,
90.795,-1.4945018,0.23181471,9.708663,-0.0037440508,0.005256787,0.0014037369,31104.0,-16643.5,-17789.5,
90.913,-1.5519626,0.198295884,9.634443,-0.0037440508,-0.0026038588,-0.001793813,31360.0,-16131.5,-18045.5,
91.031,-1.5064728,0.203084284,9.679933,-0.0050763636,0.0025921612,-0.00339258784,30848.0,-16387.5,-18045.5,
91.157,-1.5232322,0.18871908,9.67275,-0.0021452606,-0.00180447468,-0.0003282698,30336.0,-16643.5,-18557.5,
91.274,-1.5136554,0.18153646,9.677539,-0.0016123354,0.0029918552,0.0006043492,31104.0,-16131.5,-18045.5,
91.397,-1.5112612,0.18871908,9.62726,-0.0040104984,0.00019399822,-0.0009944253,29824.0,-16643.5,-19069.5,
91.514,-1.5352032,0.18393066,9.651202,-0.0017455816,0.0029918552,0.0039351304,30592.0,-16899.5,-18301.5,
91.631,-1.5016844,0.22702632,9.701481,-0.0026781856,0.0041909368,-0.002326738,30336.0,-16643.5,-18813.5,
91.747,-1.532809,0.195901692,9.727817,-0.0060089676,0.0036580116,-0.003259357,30592.0,-16131.5,-17533.5,
91.864,-1.5112612,0.2126611,9.658385,-0.0044102072,0.006589096,-0.0013941191,30080.0,-16387.5,-17789.5,
91.986,-1.520838,0.21026689,9.706269,-0.005609274,-0.0011383183,-0.0008611949,30336.0,-16387.5,-17021.5,
92.103,-1.5399916,0.18871908,9.658385,-0.0032111108,0.005123552,-0.0024599694,30336.0,-16387.5,-18045.5,
92.220,-1.5064728,0.198295884,9.624866,-0.00414373,0.0021924674,-0.0013941191,30592.0,-16131.5,-17789.5,
92.337,-1.5399916,0.19111328,9.617683,-0.00081294776,0.0031250828,-0.000727963636,30592.0,-16643.5,-18557.5,
92.455,-1.5232322,0.203084284,9.675144,-0.0021452606,-0.0022041648,0.0016701994,30848.0,-16131.5,-17277.5,
92.580,-1.520838,0.193507484,9.742182,-0.0038772672,0.0024589264,0.0012705056,30848.0,-16131.5,-18045.5,
92.698,-1.496896,0.174353868,9.699086,-0.0029446482,0.00179276984,-0.00339258784,31104.0,-16643.5,-18301.5,
92.817,-1.5352032,0.174353868,9.646414,-0.0010794252,0.005256787,-0.0008611949,30336.0,-16643.5,-18045.5,
92.934,-1.4873192,0.2246321,9.684721,0.0027842968,0.0021924674,0.00193666116,30592.0,-16387.5,-17789.5,
93.052,-1.5471742,0.14562344,9.612895,-0.00694158636,0.0035247804,-0.003925513,30336.0,-16131.5,-18301.5,
93.177,-1.5280206,0.18153646,9.713451,-0.0014791042,0.0023256988,-0.00046150108,30592.0,-16387.5,-17789.5,
93.295,-1.4609828,0.207872684,9.653597,-0.0026781856,0.0059229432,0.0012705056,31104.0,-16131.5,-18045.5,
93.413,-1.4992902,0.174353868,9.727817,-0.0014791042,0.0012598485,-0.004458438,30848.0,-16643.5,-17789.5,
93.531,-1.5040786,0.15041184,9.639232,-0.0012126416,0.0023256988,-0.0029928944,30592.0,-16131.5,-18301.5,
93.654,-1.5040786,0.17914226,9.660779,0.0030507594,-0.0003389269,0.0030025114,30336.0,-16131.5,-18301.5,
93.772,-1.5304148,0.200690092,9.699086,-0.002411738,0.0008601546,-0.0008611949,30592.0,-15875.5,-18813.5,
93.888,-1.5184438,0.17674806,9.591347,-0.004676655,0.0016595423,-0.0001950385,30080.0,-15875.5,-18557.5,
94.005,-1.484925,0.15759446,9.612895,-0.0026781856,-0.000205695632,-0.0048581316,30592.0,-16131.5,-17789.5,
94.123,-1.5184438,0.15998866,9.732605,-0.0017455816,-0.0015380084,-0.0008611949,30336.0,-16387.5,-18557.5,
94.246,-1.496896,0.2174495,9.620077,-0.0060089676,0.000460457068,-0.0009944253,30848.0,-16131.5,-17789.5,
94.363,-1.4921076,0.207872684,9.691904,-0.00081294776,0.004723858,0.0012705056,30592.0,-16131.5,-17533.5,
94.480,-1.5375974,0.18153646,9.696692,0.0017184466,0.0064558648,-0.0003282698,30592.0,-15875.5,-17021.5,
94.597,-1.5304148,0.2126611,9.708663,-0.0026781856,0.0033915452,-0.0015273513,30848.0,-16643.5,-17277.5,
94.713,-1.5352032,0.14562344,9.711058,-0.00414373,0.0040577016,0.0018034298,30592.0,-16131.5,-18301.5,
94.835,-1.508867,0.195901692,9.651202,-0.0060089676,0.0045906304,0.001004043,30336.0,-15619.5,-17789.5,
94.952,-1.4801366,0.19111328,9.620077,-0.0040104984,0.0028586238,0.00047111884,30080.0,-15875.5,-17277.5,
95.070,-1.5495684,0.18153646,9.670356,-0.0057424904,0.0055232496,0.000337886632,30080.0,-16387.5,-18045.5,
95.188,-1.5184438,0.195901692,9.655991,0.002384603,0.0059229432,-0.0035258192,31104.0,-15619.5,-17533.5,
95.306,-1.508867,0.17674806,9.615289,-0.0032111108,0.0028586238,0.0014037369,30592.0,-16899.5,-18045.5,
95.429,-1.5280206,0.18871908,9.667962,-0.0012126416,0.0019260049,-0.0025932006,30592.0,-16643.5,-18813.5,
95.548,-1.5471742,0.169565468,9.665567,-0.002811417,0.0008601546,-0.001793813,29824.0,-16643.5,-18557.5,
95.665,-1.5495684,0.18393066,9.679933,-0.0020120292,0.0029918552,-0.00339258784,30848.0,-16387.5,-19325.5,
95.783,-1.5375974,0.13604665,9.727817,-1.3560057e-05,0.007122021,-0.004458438,30592.0,-17155.5,-18557.5,
95.900,-1.496896,0.18632488,9.71824,-0.0049431176,0.0028586238,-0.0043252064,30080.0,-16899.5,-18301.5,
96.021,-1.5471742,0.15998866,9.708663,-0.0021452606,0.0016595423,-0.0009944253,30080.0,-16387.5,-17789.5,
96.139,-1.520838,0.195901692,9.62726,0.000919044,0.00805464,0.0012705056,30592.0,-16643.5,-18301.5,
96.253,-1.4801366,0.2174495,9.660779,0.00185167792,0.00179276984,-0.0001950385,30848.0,-16643.5,-18301.5,
96.372,-1.5232322,0.18632488,9.701481,0.0021181404,0.001526311,0.0024695872,30336.0,-16387.5,-18301.5,
96.489,-1.5016844,0.18871908,9.691904,-0.00694158636,-0.000871852064,-0.0015273513,30592.0,-16899.5,-18045.5,
96.614,-1.5160496,0.193507484,9.622472,-0.0029446482,-0.00273709,-0.0015273513,30592.0,-16131.5,-18813.5,
96.732,-1.532809,0.18393066,9.696692,-0.0005464852,-0.0019377023,-0.005124594,30336.0,-16643.5,-17789.5,
96.849,-1.5352032,0.2150553,9.696692,0.0002528876,0.0021924674,-0.0049913632,30592.0,-16131.5,-17533.5,
96.964,-1.5280206,0.25096834,9.641625,-0.006675124,0.0013930798,-0.0005947314,30592.0,-16643.5,-18301.5,
97.081,-1.5112612,0.205478492,9.677539,-0.001878798,0.0009933859,0.0044680556,30592.0,-16643.5,-19069.5,
97.204,-1.5256264,0.169565468,9.665567,0.0002528876,0.0011266135,-0.0045916692,30592.0,-16899.5,-17789.5,
97.322,-1.5256264,0.195901692,9.59853,-0.0021452606,0.00725525236,-0.0019270442,30336.0,-16387.5,-18301.5,
97.441,-1.5160496,0.174353868,9.696692,-0.0025449544,0.00059369208,-0.0019270442,30080.0,-16387.5,-18045.5,
97.560,-1.5280206,0.203084284,9.603318,-0.0045434236,0.0020592324,-0.0012608878,30848.0,-16131.5,-18301.5,
97.684,-1.4897134,0.15280604,9.64402,0.00185167792,0.005123552,-0.002726432,30592.0,-16387.5,-19581.5,
97.801,-1.5112612,0.2198437,9.715846,0.000785827636,-0.0011383183,-0.0005947314,30592.0,-16131.5,-18045.5,
97.918,-1.5352032,0.17674806,9.696692,-0.00414373,0.0035247804,0.0020698932,30592.0,-16643.5,-18557.5,
98.035,-1.5591452,0.18153646,9.71824,-0.0044102072,0.0009933859,-0.0013941191,30336.0,-17155.5,-18301.5,
98.151,-1.5280206,0.18871908,9.744576,0.001451984,-0.0062011032,0.0034022052,30336.0,-15875.5,-18813.5,
98.273,-1.532809,0.18393066,9.713451,-0.0012126416,0.0020592324,-0.0029928944,30336.0,-17155.5,-18301.5,
98.390,-1.520838,0.2150553,9.615289,-0.00094617908,0.0016595423,0.00193666116,30336.0,-16387.5,-17277.5,
98.507,-1.5352032,0.16238287,9.751759,-0.004809886,-0.0006053895,-0.0040587444,29824.0,-16643.5,-18813.5,
98.623,-1.463377,0.18153646,9.488397,-0.00081294776,0.0059229432,-0.0008611949,30336.0,-16131.5,-17021.5,
98.740,-1.5375974,0.169565468,9.533886,-0.0038772672,0.0049903208,-0.0019270442,30080.0,-16643.5,-17277.5,
98.863,-1.5711162,0.2222379,9.677539,-0.00414373,-7.246435e-05,0.0011372734,30592.0,-16387.5,-17533.5,
98.978,-1.5543568,0.198295884,9.550646,0.0011855215,-0.004602328,0.0030025114,30336.0,-16643.5,-17533.5,
99.095,-1.5423858,0.18871908,9.646414,-0.00028002262,0.0011266135,-0.0011276575,31360.0,-15619.5,-17277.5,
99.214,-1.4777424,0.16717127,9.737393,-0.0057424904,-0.0004721582,-0.002326738,30592.0,-15875.5,-16765.5,
99.330,-1.5399916,0.200690092,9.754153,-0.0026781856,-0.00273709,-0.0013941191,30848.0,-16387.5,-17533.5,
99.453,-1.5830872,0.19111328,9.751759,-0.002811417,0.0019260049,0.0011372734,30592.0,-15875.5,-17789.5,
99.571,-1.5184438,0.18153646,9.675144,-0.0030778944,0.001526311,0.00047111884,30336.0,-16387.5,-17277.5,
99.688,-1.5591452,0.19111328,9.655991,-0.00067971648,0.0041909368,-0.0028596632,30080.0,-16387.5,-17277.5,
99.805,-1.5160496,0.18393066,9.720634,-0.0040104984,0.0012598485,0.0011372734,30848.0,-16387.5,-18557.5,
99.922,-1.5471742,0.18632488,9.660779,0.0010522902,0.00059369208,-0.0009944253,30336.0,-16643.5,-18813.5,
100.044,-1.5495684,0.2246321,9.71824,-0.00361080468,-0.0015380084,-0.0015273513,30592.0,-16899.5,-18045.5,
100.161,-1.472954,0.14322924,9.617683,-0.0004132688,0.0025921612,-0.0011276575,30336.0,-16643.5,-16765.5,
100.277,-1.532809,0.18393066,9.651202,-0.0040104984,0.0029918552,0.00193666116,30080.0,-16643.5,-17789.5,
100.395,-1.5352032,0.17674806,9.670356,-0.006675124,0.00179276984,0.00073758052,30336.0,-16643.5,-18813.5,
100.512,-1.5136554,0.18393066,9.689509,-0.0030778944,0.0021924674,0.00073758052,29824.0,-16643.5,-18045.5,
100.636,-1.6477306,0.205478492,10.113283,-0.014402524,-0.0011383183,-0.0005947314,31104.0,-15875.5,-18301.5,
100.755,-1.5112612,0.198295884,9.756547,-0.0038772672,-0.0006053895,-0.0016605817,30848.0,-16387.5,-18557.5,
100.874,-1.5280206,0.203084284,9.663174,-0.00028002262,0.0003272295,0.00193666116,30336.0,-15875.5,-19069.5,
100.993,-1.4753482,0.205478492,9.663174,-0.0030778944,0.0032583176,-0.0003282698,30336.0,-16387.5,-17789.5,
101.117,-1.5064728,0.205478492,9.658385,-0.005609274,0.0043241644,0.0012705056,30592.0,-16387.5,-18813.5,
101.235,-1.5495684,0.15520026,9.713451,0.000119671224,-0.0016712397,-0.000727963636,31104.0,-15875.5,-18045.5,
101.355,-1.5399916,0.13125824,9.696692,-0.004676655,-0.0016712397,-0.0008611949,30592.0,-15619.5,-17789.5,
101.471,-1.5591452,0.241391508,9.730211,-0.0044102072,0.00019399822,0.0031357436,30080.0,-15875.5,-19837.5,
101.590,-1.5471742,0.16717127,9.588953,-0.010272369,0.003791239,-0.0003282698,30848.0,-16131.5,-18045.5,
101.712,-1.520838,0.14562344,9.670356,-0.002811417,-0.0015380084,0.00366866784,30336.0,-16131.5,-17789.5,
101.829,-1.532809,0.16477707,9.694298,-0.008673593,0.0011266135,-0.0016605817,30336.0,-16643.5,-18045.5,
101.945,-1.5495684,0.18871908,9.667962,-0.0020120292,0.004723858,-0.00046150108,30336.0,-16131.5,-17789.5,
102.061,-1.5160496,0.171959668,9.691904,-0.0053428112,0.0011266135,0.001004043,31104.0,-16131.5,-18045.5,
102.179,-1.54478,0.19111328,9.703875,-0.002811417,0.0063226336,0.0012705056,30592.0,-16643.5,-17533.5,
102.301,-1.5040786,0.2198437,9.6488088,-0.0068083555,0.0023256988,-0.0013941191,30336.0,-15875.5,-17533.5,
102.421,-1.4609828,0.241391508,9.560223,-0.00774095936,0.003924474,-0.002726432,30336.0,-15875.5,-18813.5,
102.539,-1.496896,0.200690092,9.593741,-0.00347757336,-0.0032700152,-0.003259357,30592.0,-16387.5,-18301.5,
102.663,-1.5280206,0.25336254,9.682327,-0.009872675,0.008720797,0.00087081176,30592.0,-16131.5,-17533.5,
102.780,-1.5184438,0.17674806,9.596135,0.004782766,0.0027253888,-0.0028596632,30848.0,-15875.5,-18045.5,
102.902,-1.54478,0.2126611,9.679933,-0.0054760424,-0.0016712397,0.0015369672,30080.0,-16131.5,-17533.5,
103.018,-1.5543568,0.15520026,9.699086,-0.0032111108,0.0011266135,-0.0019270442,30848.0,-16643.5,-18557.5,
103.136,-1.5830872,0.15520026,9.6105,0.002384603,-0.0068672598,0.006200061,30080.0,-16131.5,-18301.5,
103.253,-1.5016844,0.16238287,9.620077,-0.0057424904,0.0043241644,0.0015369672,30848.0,-16131.5,-18045.5,
103.371,-1.5112612,0.18393066,9.732605,-0.008540362,-0.0039361716,-0.0035258192,30592.0,-16643.5,-17789.5,
103.493,-1.5160496,0.18632488,9.691904,-0.004276961,-0.0019377023,0.0020698932,30592.0,-15875.5,-17789.5,
103.611,-1.5256264,0.198295884,9.742182,-0.0020120292,-0.0012715459,-0.0021935068,29824.0,-16131.5,-17021.5,
103.729,-1.4992902,0.174353868,9.696692,-0.0005464852,0.000460457068,-0.0005947314,30592.0,-16387.5,-18045.5,
103.848,-1.54478,0.19111328,9.708663,-0.0012126416,0.004857093,0.0018034298,30592.0,-16899.5,-17789.5,
103.969,-1.4873192,0.18153646,9.617683,-0.0064086468,-0.000205695632,0.00286928,30592.0,-16899.5,-17789.5,
104.086,-1.4945018,0.16238287,9.572193,-0.00094617908,0.0040577016,0.0063332924,30592.0,-16387.5,-17533.5,
104.204,-1.580693,0.15280604,9.751759,-0.00347757336,-0.0060678684,-6.180722e-05,30592.0,-16387.5,-17533.5,
104.321,-1.4897134,0.14083504,9.653597,-0.0005464852,0.0040577016,-0.0003282698,30080.0,-16131.5,-18045.5,
104.438,-1.5423858,0.195901692,9.739788,-0.004276961,0.00059369208,-0.000727963636,31104.0,-16387.5,-18301.5,
104.563,-1.5160496,0.195901692,9.660779,-0.0014791042,0.0012598485,0.001004043,30592.0,-16131.5,-17789.5,
104.682,-1.5352032,0.195901692,9.634443,-0.002811417,-0.00180447468,-0.003259357,30592.0,-16643.5,-17789.5,
104.800,-1.4442234,0.16238287,9.6488088,-0.002411738,0.0031250828,-0.0001950385,30592.0,-16131.5,-17021.5,
104.917,-1.4992902,0.16717127,9.665567,-0.00094617908,-0.0032700152,-0.0012608878,30336.0,-16643.5,-17021.5,
105.035,-1.508867,0.2174495,9.641625,-0.0038772672,0.0008601546,-0.0005947314,30080.0,-16643.5,-17789.5,
105.156,-1.484925,0.22702632,9.651202,0.000119671224,0.004723858,-0.0001950385,30592.0,-16387.5,-17533.5,
105.273,-1.5280206,0.22942052,9.778095,-0.0053428112,0.0033915452,-0.0012608878,30848.0,-15875.5,-18301.5,
105.390,-1.5136554,0.2246321,9.727817,-0.002811417,0.0020592324,-0.0009944253,30848.0,-15875.5,-17533.5,
105.506,-1.4873192,0.195901692,9.67275,-0.00414373,-0.0014047772,-0.005524288,30848.0,-15875.5,-18045.5,
105.622,-1.532809,0.203084284,9.675144,-0.0049431176,0.0009933859,-0.000727963636,29824.0,-16131.5,-18045.5,
105.746,-1.508867,0.205478492,9.713451,-0.00094617908,0.0016595423,0.002336355,30336.0,-16387.5,-17789.5,
105.863,-1.5136554,0.2198437,9.67275,0.000119671224,0.0021924674,-6.180722e-05,30336.0,-15619.5,-17533.5,
105.980,-1.532809,0.198295884,9.565011,-0.003344342,0.0013930798,-6.180722e-05,30336.0,-15875.5,-18301.5,
106.097,-1.5495684,0.16477707,9.74697,-0.002811417,6.0766936e-05,0.001004043,31104.0,-15875.5,-18045.5,
106.213,-1.5399916,0.200690092,9.67275,-0.0013458729,-0.000871852064,0.00047111884,30336.0,-15875.5,-18813.5,
106.338,-1.5375974,0.23181471,9.667962,-0.0022784918,0.0033915452,0.0040683616,30592.0,-16131.5,-17277.5,
106.457,-1.5136554,0.18632488,9.67275,-0.0040104984,-0.0024706236,0.00047111884,30336.0,-16131.5,-18813.5,
106.574,-1.532809,0.207872684,9.655991,-0.0062754304,-0.0010050833,-6.180722e-05,30848.0,-16387.5,-18301.5,
106.691,-1.5184438,0.2246321,9.576982,-0.0012126416,0.0041909368,-0.0021935068,30336.0,-16387.5,-18045.5,
106.813,-1.5232322,0.17674806,9.701481,-0.0010794252,0.00179276984,-0.00046150108,30336.0,-16131.5,-18301.5,
106.932,-1.5399916,0.205478492,9.608107,-0.0014791042,0.0036580116,0.00047111884,30848.0,-16643.5,-18045.5,
107.050,-1.5040786,0.21026689,9.682327,-0.00414373,-0.0004721582,0.00020465534,30848.0,-15619.5,-17533.5,
107.168,-1.5615394,0.2150553,9.663174,-0.00520958,-0.0006053895,-0.0019270442,30336.0,-16899.5,-17789.5,
107.283,-1.5352032,0.195901692,9.653597,-0.001878798,0.0013930798,-0.0012608878,30336.0,-16131.5,-17789.5,
107.407,-1.5399916,0.2174495,9.727817,-0.004676655,0.0009933859,0.00020465534,30080.0,-16899.5,-17789.5,
107.523,-1.508867,0.193507484,9.636837,-0.0037440508,0.004857093,7.142406e-05,30336.0,-16131.5,-17789.5,
107.640,-1.5184438,0.25575674,9.6105,-0.00094617908,0.000460457068,-6.180722e-05,30336.0,-16643.5,-18045.5,
107.757,-1.5399916,0.195901692,9.615289,-0.0020120292,0.00059369208,-0.003259357,30336.0,-16643.5,-18557.5,
107.875,-1.5160496,0.13844084,9.677539,-0.0026781856,0.007122021,-0.0028596632,30080.0,-16131.5,-18045.5,
107.998,-1.5854814,0.109710424,9.6488088,-0.00081294776,-0.0030035526,-0.0015273513,30336.0,-16643.5,-18301.5,
108.118,-1.5112612,0.200690092,9.612895,-0.0020120292,0.0027253888,-0.005657519,30592.0,-15875.5,-18045.5,
108.236,-1.5423858,0.19111328,9.706269,-0.004276961,0.00059369208,-0.0031261258,30080.0,-16387.5,-18045.5,
108.353,-1.5352032,0.198295884,9.624866,0.0011855215,0.0033915452,-0.0003282698,30336.0,-16387.5,-17789.5,
108.471,-1.5735104,0.198295884,9.576982,-0.0022784918,0.00072692332,-0.0031261258,30848.0,-16131.5,-18557.5,
108.596,-1.508867,0.16238287,9.706269,-0.00014679134,0.00059369208,0.000337886632,29824.0,-16131.5,-18301.5,
108.715,-1.5256264,0.2174495,9.615289,-0.0030778944,0.0019260049,-0.0008611949,30848.0,-15363.5,-18045.5,
108.833,-1.5040786,0.198295884,9.615289,-0.0026781856,0.0057897084,0.0014037369,30848.0,-15875.5,-18301.5,
108.952,-1.5495684,0.2174495,9.684721,-0.0050763636,-0.0006053895,0.000337886632,30848.0,-16131.5,-18045.5,
109.070,-1.5160496,0.15041184,9.591347,0.0010522902,0.0003272295,-0.0008611949,30592.0,-16131.5,-17789.5,
109.192,-1.5304148,0.16238287,9.67275,-0.0049431176,0.001526311,-0.002326738,30848.0,-16131.5,-18301.5,
109.308,-1.4945018,0.200690092,9.737393,-0.0021452606,0.0053900144,-0.0011276575,30848.0,-15875.5,-18301.5,
109.427,-1.520838,0.17674806,9.632049,-0.0017455816,0.005656477,-0.0013941191,30592.0,-16131.5,-19069.5,
109.544,-1.5184438,0.203084284,9.658385,-0.0037440508,0.006189406,0.0024695872,30336.0,-16643.5,-18045.5,
109.668,-1.4897134,0.195901692,9.641625,0.000119671224,0.0008601546,-0.0025932006,30848.0,-15875.5,-18045.5,
109.787,-1.556751,0.18393066,9.646414,0.0030507594,0.00019399822,0.0011372734,31104.0,-15875.5,-18813.5,
109.904,-1.5423858,0.207872684,9.653597,-0.003344342,0.0012598485,0.00047111884,30848.0,-16131.5,-17277.5,
110.023,-1.463377,0.195901692,9.655991,-0.004809886,0.0044573956,-0.0016605817,30592.0,-16131.5,-17789.5,
110.140,-1.5136554,0.2174495,9.694298,-0.0057424904,0.005256787,-0.0008611949,30592.0,-15875.5,-18301.5,
110.277,-1.4897134,0.17914226,9.71824,-0.0057424904,0.0011266135,-0.0001950385,30080.0,-15875.5,-17789.5,
110.394,-1.5136554,0.25096834,9.670356,-0.0030778944,0.0019260049,-0.000727963636,30592.0,-15619.5,-18045.5,
110.515,-1.496896,0.18393066,9.713451,-0.0044102072,0.005656477,-0.000727963636,30592.0,-16131.5,-18045.5,
110.632,-1.4753482,0.198295884,9.682327,-0.00694158636,0.0012598485,0.002336355,31104.0,-15107.5,-18045.5,
110.752,-1.5160496,0.171959668,9.708663,-0.0022784918,-0.0020709336,-0.0003282698,30592.0,-15875.5,-16765.5,
110.876,-1.556751,0.2198437,9.67275,-0.0045434236,0.0016595423,0.0020698932,30080.0,-15875.5,-18045.5,
110.992,-1.5639336,0.234208916,9.694298,-0.0020120292,0.0023256988,-0.00046150108,30592.0,-15363.5,-18045.5,
111.111,-1.496896,0.2174495,9.569799,0.000119671224,-0.0024706236,0.0011372734,30592.0,-15619.5,-18557.5,
111.228,-1.5639336,0.2174495,9.723028,-0.0021452606,0.0045906304,-0.00046150108,30848.0,-15107.5,-17789.5,
111.346,-1.4945018,0.15998866,9.632049,-0.004809886,0.005256787,7.142406e-05,30336.0,-16131.5,-17277.5,
111.467,-1.5064728,0.171959668,9.653597,-0.002811417,0.0033915452,-0.0016605817,30592.0,-15875.5,-18045.5,
111.585,-1.4945018,0.174353868,9.64402,-0.00347757336,0.0003272295,-0.0025932006,30592.0,-15619.5,-17533.5,
111.704,-1.4992902,0.2222379,9.622472,-0.008140668,0.0025921612,-0.0045916692,30080.0,-16131.5,-17789.5,
111.820,-1.4897134,0.18632488,9.641625,-0.006541893,0.0036580116,-0.0015273513,30080.0,-15619.5,-18045.5,
111.937,-1.5112612,0.15998866,9.632049,-0.0005464852,0.0045906304,-0.0020602756,30848.0,-15875.5,-18045.5,
112.060,-1.532809,0.19111328,9.682327,0.00065259636,0.0067223272,-0.0037922818,30080.0,-16131.5,-19069.5,
112.179,-1.5782988,0.193507484,9.593741,-0.00347757336,0.0028586238,-0.0013941191,30592.0,-15875.5,-18045.5,
112.299,-1.5304148,0.19111328,9.651202,-0.010005906,-0.0004721582,-0.001793813,30336.0,-15619.5,-17789.5,
112.415,-1.4585886,0.195901692,9.682327,-0.004809886,0.00912049,0.002336355,30592.0,-16131.5,-18557.5,
112.537,-1.472954,0.12886404,9.62726,-0.0050763636,0.0016595423,0.00193666116,30336.0,-15875.5,-18045.5,
112.655,-1.5016844,0.205478492,9.639232,-0.0020120292,0.001526311,0.00020465534,30592.0,-16131.5,-18301.5,
112.773,-1.508867,0.205478492,9.605712,0.0003861338,0.008187875,-0.0029928944,30848.0,-16131.5,-17789.5,
112.890,-1.4873192,0.203084284,9.651202,-0.005609274,0.0019260049,-0.0029928944,30848.0,-16643.5,-17789.5,
113.009,-1.5112612,0.198295884,9.665567,0.000119671224,0.0032583176,0.0006043492,30592.0,-16643.5,-17789.5,
113.134,-1.4945018,0.17674806,9.6105,-0.004276961,-0.0006053895,-0.0008611949,30080.0,-16643.5,-17789.5,
113.250,-1.4992902,0.21026689,9.679933,-0.0004132688,0.003791239,-0.0005947314,30592.0,-16387.5,-17533.5,
113.367,-1.5232322,0.18871908,9.660779,0.0003861338,0.00019399822,0.0011372734,30336.0,-16899.5,-18557.5,
113.484,-1.5399916,0.18393066,9.651202,-0.0029446482,0.0012598485,0.00087081176,30336.0,-16131.5,-18045.5,
113.602,-1.5782988,0.193507484,9.699086,-0.0005464852,0.0040577016,-0.0031261258,30336.0,-16387.5,-18813.5,
113.726,-1.5136554,0.16477707,9.62726,-0.00067971648,0.0011266135,-0.0040587444,31360.0,-16643.5,-18813.5,
113.849,-1.5016844,0.18393066,9.617683,-0.00414373,0.008454334,-0.0028596632,30848.0,-16387.5,-18301.5,
113.964,-1.5184438,0.2198437,9.677539,-0.0016123354,0.0013930798,-0.0035258192,30592.0,-17155.5,-19325.5,
114.081,-1.5878756,0.2126611,9.58177,-0.0050763636,-0.0016712397,0.00087081176,30080.0,-16643.5,-18301.5,
114.198,-1.5375974,0.193507484,9.711058,-1.3560057e-05,0.001526311,-0.002726432,30592.0,-16131.5,-18301.5,
114.321,-1.4992902,0.195901692,9.651202,-0.004809886,6.0766936e-05,-0.00339258784,30080.0,-16131.5,-18045.5,
114.440,-1.5399916,0.205478492,9.670356,-0.0057424904,-0.000738620736,-0.0036590504,30336.0,-16387.5,-19069.5,
114.559,-1.556751,0.22942052,9.663174,-0.0050763636,0.001526311,-0.0011276575,30080.0,-16387.5,-18045.5,
114.675,-1.5256264,0.193507484,9.703875,0.00065259636,0.00019399822,-0.0011276575,30080.0,-16643.5,-17789.5,
114.794,-1.5160496,0.15759446,9.64402,-0.0017455816,0.006189406,-0.0025932006,30592.0,-16387.5,-17021.5,
114.916,-1.5471742,0.174353868,9.641625,-0.0013458729,-0.0016712397,0.0014037369,29568.0,-16387.5,-18045.5,
115.035,-1.5352032,0.14083504,9.620077,-0.003344342,0.0033915452,-0.00046150108,30592.0,-15875.5,-18557.5,
115.151,-1.508867,0.18632488,9.730211,-0.0016123354,-0.00273709,-0.0035258192,30080.0,-16899.5,-18557.5,
115.267,-1.5184438,0.21026689,9.751759,-0.0020120292,0.0044573956,0.0035354364,30080.0,-16131.5,-17277.5,
115.392,-1.4681654,0.200690092,9.502762,-0.0021452606,0.006589096,-0.0024599694,29824.0,-16387.5,-17789.5,
115.510,-1.520838,0.14801764,9.64402,-0.0060089676,0.0044573956,-0.0005947314,30336.0,-16131.5,-18557.5,
115.625,-1.4705598,0.19111328,9.689509,-0.0014791042,-0.0010050833,-0.0021935068,30592.0,-16387.5,-18301.5,
115.743,-1.54478,0.193507484,9.670356,-0.0022784918,0.00072692332,-0.003925513,30592.0,-16387.5,-17789.5,
115.860,-1.4873192,0.234208916,9.687116,0.0005193651,0.0011266135,-0.004191975,30080.0,-15619.5,-17789.5,
115.983,-1.5375974,0.2126611,9.715846,-0.004809886,-0.0059346408,-0.0013941191,30848.0,-16131.5,-18301.5,
116.099,-1.5352032,0.21026689,9.694298,0.000119671224,-0.0016712397,-0.002326738,30080.0,-16387.5,-18301.5,
116.218,-1.5112612,0.207872684,9.646414,-0.0016123354,0.0029918552,-0.0009944253,30592.0,-16131.5,-18557.5,
116.336,-1.4945018,0.18632488,9.670356,-0.0020120292,0.0011266135,-0.000727963636,30336.0,-16643.5,-18301.5,
116.455,-1.5184438,0.205478492,9.641625,-0.00414373,-0.0006053895,-6.180722e-05,30592.0,-16643.5,-19069.5,
116.577,-1.5136554,0.18153646,9.646414,-0.0057424904,0.0020592324,0.00087081176,30080.0,-16643.5,-19325.5,
116.695,-1.5256264,0.18393066,9.615289,-0.001878798,0.0025921612,0.004334824,29824.0,-16899.5,-18557.5,
116.811,-1.5040786,0.2174495,9.830768,0.00065259636,-0.0034032464,0.0006043492,30848.0,-15875.5,-18813.5,
116.928,-1.5016844,0.2150553,9.620077,-0.00520958,0.0063226336,-0.0020602756,29824.0,-16643.5,-19069.5,
117.044,-1.5040786,0.207872684,9.617683,-0.0030778944,0.0021924674,-0.000727963636,30848.0,-16387.5,-17021.5,
117.169,-1.5375974,0.18393066,9.694298,-0.005609274,0.0057897084,-0.0008611949,30336.0,-16899.5,-17533.5,
117.286,-1.5352032,0.174353868,9.617683,-0.0054760424,0.003924474,-0.0020602756,30080.0,-16387.5,-18301.5,
117.403,-1.5711162,0.234208916,9.679933,-0.0021452606,0.0011266135,0.00047111884,30080.0,-16643.5,-17789.5,
117.522,-1.508867,0.205478492,9.574588,-0.0022784918,0.0029918552,-0.003925513,30336.0,-16387.5,-17277.5,
117.640,-1.4945018,0.18871908,9.660779,-0.005609274,-0.0026038588,-0.0005947314,30336.0,-17411.5,-17021.5,
117.761,-1.4921076,0.15041184,9.653597,0.0013187528,0.0025921612,-0.0013941191,30592.0,-16643.5,-18045.5,
117.878,-1.5375974,0.18393066,9.711058,-0.0057424904,0.000460457068,-0.0008611949,30592.0,-15875.5,-18557.5,
117.997,-1.5040786,0.19111328,9.725423,-0.0049431176,0.00019399822,-0.0037922818,30080.0,-16643.5,-19325.5,
118.116,-1.5375974,0.16477707,9.679933,-0.0013458729,0.0031250828,-0.0021935068,30848.0,-16387.5,-18301.5,
118.239,-1.5256264,0.17674806,9.62726,-0.00028002262,-0.00180447468,-0.0021935068,30848.0,-16643.5,-18045.5,
118.357,-1.4992902,0.2150553,9.565011,-0.009073272,0.0031250828,-6.180722e-05,30592.0,-16131.5,-18045.5,
118.473,-1.568722,0.16238287,9.799643,0.0030507594,-0.00313678,-0.0009944253,30336.0,-16643.5,-17277.5,
118.588,-1.520838,0.25336254,9.658385,-0.0044102072,-0.0028703212,0.003268974,30336.0,-16131.5,-17277.5,
118.704,-1.4825308,0.16717127,9.608107,0.0030507594,0.0041909368,0.0006043492,30848.0,-15619.5,-17277.5,
118.827,-1.5304148,0.236603108,9.634443,-0.0022784918,0.0027253888,-0.0008611949,30336.0,-15875.5,-17277.5,
118.945,-1.4921076,0.16477707,9.64402,-0.006541893,0.0063226336,-0.0029928944,30336.0,-16387.5,-18301.5,
119.062,-1.4992902,0.205478492,9.655991,-0.003344342,0.006189406,-0.002326738,30592.0,-16387.5,-18557.5,
119.178,-1.463377,0.2198437,9.622472,-0.00347757336,0.0077881776,-0.0013941191,30336.0,-15875.5,-17533.5,
119.295,-1.5232322,0.2126611,9.608107,-0.0057424904,0.0003272295,-6.180722e-05,30336.0,-16131.5,-17789.5,
119.417,-1.5184438,0.2126611,9.651202,-0.0022784918,0.0059229432,0.0006043492,30592.0,-16131.5,-18301.5,
119.533,-1.5543568,0.18393066,9.711058,-0.004676655,-7.246435e-05,0.0034022052,30592.0,-15875.5,-17789.5,
119.649,-1.4681654,0.171959668,9.636837,-0.0037440508,0.001526311,0.001004043,30336.0,-16131.5,-18045.5,
119.767,-1.4897134,0.15998866,9.677539,-0.00081294776,0.0021924674,0.000337886632,30336.0,-15619.5,-18301.5,
119.886,-1.4777424,0.22702632,9.6488088,-0.0073412808,0.0008601546,-0.004191975,29824.0,-15619.5,-18045.5,
120.009,-1.5184438,0.15520026,9.641625,-0.006541893,0.0032583176,-0.0040587444,29824.0,-15875.5,-18813.5,
120.127,-1.5663278,0.195901692,9.76373,-0.002411738,-0.0020709336,0.0016701994,31104.0,-16131.5,-18813.5,
120.244,-1.5352032,0.23181471,9.778095,-0.00094617908,-0.0068672598,-0.0011276575,30592.0,-16131.5,-18301.5,
120.364,-1.427464,0.171959668,9.624866,-0.0022784918,0.009786647,-0.0024599694,30080.0,-16131.5,-18557.5,
120.482,-1.5280206,0.19111328,9.663174,-0.0020120292,0.0023256988,-0.0008611949,30080.0,-15875.5,-18813.5,
120.604,-1.4921076,0.205478492,9.667962,0.00185167792,0.0012598485,0.0006043492,30848.0,-16131.5,-18813.5,
120.723,-1.5040786,0.18153646,9.55304,-0.004276961,-0.0011383183,-0.0025932006,29568.0,-16131.5,-19069.5,
120.840,-1.5519626,0.18632488,9.720634,0.0002528876,-0.0024706236,0.0011372734,30336.0,-15875.5,-18301.5,
120.957,-1.508867,0.15280604,9.624866,-0.00414373,0.006189406,7.142406e-05,30080.0,-15875.5,-18813.5,
121.071,-1.5304148,0.17914226,9.67275,-0.0025449544,0.0044573956,0.001004043,30080.0,-15363.5,-18045.5,
121.193,-1.4921076,0.18393066,9.624866,-0.0064086468,0.00059369208,0.00047111884,30336.0,-15875.5,-18557.5,
121.311,-1.5232322,0.16717127,9.687116,-0.0026781856,0.0008601546,-0.0029928944,30080.0,-15363.5,-18301.5,
121.428,-1.5280206,0.17914226,9.603318,-0.00361080468,0.0016595423,-0.0053910568,29824.0,-15619.5,-18557.5,
121.547,-1.5016844,0.15280604,9.732605,-0.0040104984,0.0041909368,0.001004043,30336.0,-15619.5,-18301.5,
121.669,-1.5280206,0.198295884,9.62726,-0.0022784918,6.0766936e-05,-0.0013941191,29824.0,-15619.5,-17789.5,
121.788,-1.4992902,0.205478492,9.67275,-0.00081294776,0.004723858,-0.0015273513,30592.0,-15363.5,-18301.5,
121.906,-1.5280206,0.19111328,9.624866,-0.001878798,0.0033915452,0.00087081176,30592.0,-15875.5,-17789.5,
122.023,-1.54478,0.203084284,9.6105,-0.0020120292,0.0023256988,-0.0003282698,30080.0,-15875.5,-18301.5,
122.139,-1.5280206,0.203084284,9.679933,-0.00361080468,-0.000871852064,0.0020698932,30080.0,-15875.5,-19325.5,
122.266,-1.5256264,0.174353868,9.679933,-0.008007437,0.00059369208,0.0016701994,30336.0,-15875.5,-18045.5,
122.384,-1.5016844,0.19111328,9.620077,-0.00014679134,-7.246435e-05,0.0011372734,30592.0,-15875.5,-18301.5,
122.502,-1.5423858,0.207872684,9.689509,0.0030507594,-0.0062011032,-0.003925513,30080.0,-15875.5,-18301.5,
122.620,-1.5280206,0.203084284,9.639232,-0.0032111108,0.005256787,0.0030025114,29568.0,-16131.5,-18557.5,
122.738,-1.508867,0.203084284,9.620077,-0.0037440508,0.0068555624,-0.000727963636,29568.0,-15363.5,-18557.5,
122.863,-1.5112612,0.16477707,9.691904,-0.0026781856,0.0035247804,0.0014037369,30336.0,-16131.5,-19069.5,
122.982,-1.484925,0.18393066,9.694298,-0.0032111108,0.0028586238,0.00020465534,30848.0,-15619.5,-18301.5,
123.100,-1.5352032,0.17914226,9.715846,-0.0032111108,0.0031250828,-0.002726432,30336.0,-15363.5,-17789.5,
123.216,-1.496896,0.18393066,9.737393,-0.003344342,0.000460457068,-0.00046150108,30848.0,-15363.5,-18301.5,
123.334,-1.5782988,0.205478492,9.6488088,-0.00067971648,0.0011266135,-0.0013941191,30336.0,-15619.5,-19325.5,
123.460,-1.532809,0.16477707,9.6488088,-0.0005464852,0.004857093,-0.005657519,30080.0,-16131.5,-18301.5,
123.576,-1.5136554,0.17914226,9.677539,-0.0044102072,0.00072692332,0.00073758052,30080.0,-15619.5,-18557.5,
123.694,-1.5399916,0.2222379,9.730211,-0.007874206,0.0003272295,0.0031357436,30336.0,-16131.5,-18045.5,
123.809,-1.556751,0.174353868,9.634443,-0.00347757336,-0.0015380084,0.00047111884,30080.0,-15107.5,-18557.5,
123.933,-1.5160496,0.18632488,9.754153,-0.0014791042,0.0055232496,0.0015369672,30080.0,-15875.5,-18301.5,
124.051,-1.5375974,0.207872684,9.653597,-1.3560057e-05,-0.0012715459,0.0020698932,30592.0,-16643.5,-18301.5,
124.170,-1.4777424,0.195901692,9.639232,-0.008806825,0.003924474,-0.0012608878,30080.0,-15619.5,-18557.5,
124.287,-1.5543568,0.203084284,9.715846,-0.001878798,0.008187875,0.0006043492,30080.0,-15363.5,-17533.5,
124.403,-1.508867,0.193507484,9.574588,-0.001878798,0.0003272295,-0.000727963636,30336.0,-15875.5,-18301.5,
124.527,-1.5519626,0.195901692,9.675144,-0.0062754304,0.0027253888,-0.0012608878,30336.0,-15875.5,-18813.5,
124.646,-1.5399916,0.21026689,9.713451,-0.0037440508,0.00072692332,0.00047111884,30080.0,-15619.5,-17533.5,
124.765,-1.5375974,0.15520026,9.660779,-0.006142199,0.0041909368,0.0022031236,30080.0,-15107.5,-19069.5,
124.882,-1.5950582,0.198295884,9.91217,0.000785827636,-0.011930045,-0.0021935068,30080.0,-15363.5,-19325.5,
125.001,-1.5878756,0.18632488,9.720634,-0.0040104984,0.00072692332,-0.0013941191,29824.0,-15363.5,-18813.5,
125.125,-1.5352032,0.2198437,9.6488088,-0.0030778944,0.0029918552,0.00020465534,30080.0,-15363.5,-17789.5,
125.249,-1.5639336,0.200690092,9.703875,-0.001878798,0.00059369208,-0.002326738,30592.0,-15619.5,-17533.5,
125.366,-1.4873192,0.174353868,9.622472,-0.0020120292,0.010053109,-0.0013941191,29824.0,-15619.5,-17789.5,
125.485,-1.5375974,0.18871908,9.687116,-0.0040104984,-0.0059346408,0.001004043,30592.0,-15875.5,-17277.5,
125.602,-1.568722,0.195901692,9.713451,-0.00414373,-0.003669709,-0.0005947314,29824.0,-15619.5,-18557.5,
125.723,-1.4873192,0.198295884,9.684721,-0.006541893,0.0055232496,0.00047111884,30336.0,-15107.5,-17533.5,
125.841,-1.532809,0.18393066,9.711058,-0.0032111108,0.0016595423,-0.004458438,30080.0,-15875.5,-18045.5,
125.958,-1.520838,0.174353868,9.634443,-0.0057424904,-0.0047355556,-0.0028596632,30592.0,-16131.5,-18301.5,
126.076,-1.5519626,0.14083504,9.703875,-0.00774095936,-0.000871852064,-0.0029928944,30336.0,-15875.5,-17789.5,
126.196,-1.5184438,0.205478492,9.639232,-0.003344342,0.0003272295,7.142406e-05,30592.0,-15619.5,-17021.5,
126.319,-1.5136554,0.21026689,9.725423,-0.008540362,0.0024589264,-0.00046150108,30592.0,-15875.5,-18301.5,
126.437,-1.5423858,0.16717127,9.687116,-0.0012126416,0.0016595423,0.0015369672,30848.0,-15107.5,-17789.5,
126.555,-1.520838,0.174353868,9.622472,-0.0038772672,0.0024589264,-0.0008611949,30336.0,-15619.5,-16765.5,
126.673,-1.5232322,0.12886404,9.646414,-0.002411738,0.0019260049,-0.0012608878,30592.0,-16131.5,-16509.5,
126.797,-1.5112612,0.25096834,9.653597,0.000785827636,0.0025921612,-0.0008611949,30336.0,-16131.5,-18045.5,
126.916,-1.520838,0.22942052,9.689509,-0.0060089676,-0.000738620736,0.0016701994,30592.0,-15363.5,-17533.5,
127.034,-1.4945018,0.2150553,9.62726,-0.0022784918,-0.0015380084,0.0016701994,30336.0,-15619.5,-17533.5,
127.150,-1.4992902,0.17914226,9.605712,-0.0045434236,0.0029918552,-0.0001950385,30592.0,-15107.5,-17789.5,
127.267,-1.520838,0.18871908,9.699086,-0.001878798,-0.00313678,0.00073758052,30848.0,-15619.5,-17533.5,
127.387,-1.4801366,0.2198437,9.730211,0.0026510656,-0.0011383183,-0.0019270442,29824.0,-15875.5,-18557.5,
127.505,-1.5471742,0.207872684,9.67275,-0.0064086468,-0.0024706236,-0.0021935068,30592.0,-15107.5,-17789.5,
127.623,-1.4921076,0.17914226,9.691904,-0.003344342,0.0032583176,-0.0001950385,30080.0,-15619.5,-17533.5,
127.739,-1.5232322,0.195901692,9.59853,-0.0045434236,-0.0019377023,-0.0020602756,30592.0,-15363.5,-18301.5,
127.859,-1.532809,0.171959668,9.636837,-0.0017455816,0.00072692332,-0.0031261258,30336.0,-15619.5,-17021.5,
127.983,-1.4945018,0.17914226,9.696692,-0.0004132688,-0.0052684844,-0.0019270442,30080.0,-15619.5,-18045.5,
128.100,-1.4777424,0.2126611,9.586558,-0.006142199,0.004723858,-0.0001950385,30592.0,-15619.5,-18301.5,
128.215,-1.520838,0.15998866,9.64402,-0.006675124,0.0025921612,-0.002726432,30080.0,-15619.5,-17789.5,
128.330,-1.5399916,0.200690092,9.670356,0.0021181404,0.0003272295,-0.0005947314,30336.0,-15619.5,-17789.5,
128.447,-1.532809,0.2174495,9.713451,-0.0012126416,0.0024589264,0.00087081176,30336.0,-16387.5,-17533.5,
128.569,-1.4897134,0.174353868,9.651202,-0.00414373,0.00059369208,-0.0003282698,30592.0,-16131.5,-17533.5,
128.686,-1.5064728,0.169565468,9.679933,0.00185167792,0.0035247804,0.0014037369,29568.0,-15875.5,-17789.5,
128.808,-1.5112612,0.18632488,9.603318,0.0015852153,0.0040577016,-0.000727963636,30592.0,-15363.5,-17533.5,
128.927,-1.5591452,0.24378572,9.696692,-0.003344342,-0.004069403,-0.0031261258,30336.0,-15875.5,-18045.5,
129.043,-1.520838,0.18153646,9.691904,-0.00067971648,-0.0039361716,7.142406e-05,30336.0,-16131.5,-17533.5,
129.165,-1.4801366,0.207872684,9.612895,-0.0049431176,0.0021924674,-0.0011276575,30592.0,-15875.5,-18301.5,
129.284,-1.5016844,0.195901692,9.641625,-0.002411738,0.005123552,-0.002726432,30848.0,-15875.5,-18813.5,
129.401,-1.520838,0.205478492,9.6488088,-0.00081294776,0.000460457068,-0.0009944253,31104.0,-15363.5,-17533.5,
129.521,-1.5375974,0.17674806,9.675144,0.0003861338,0.0003272295,-0.0031261258,30336.0,-15363.5,-18045.5,
129.643,-1.508867,0.195901692,9.713451,-0.011338219,0.0044573956,-0.0028596632,31104.0,-15363.5,-18045.5,
129.761,-1.5064728,0.2246321,9.639232,-0.0030778944,0.00179276984,-0.0048581316,30336.0,-15363.5,-17789.5,
129.878,-1.520838,0.17674806,9.677539,-0.0038772672,0.0055232496,-0.0005947314,31104.0,-15107.5,-17533.5,
129.994,-1.4992902,0.171959668,9.670356,-0.0022784918,0.0035247804,-0.0013941191,30592.0,-15619.5,-17533.5,
130.115,-1.5519626,0.15280604,9.682327,-0.0029446482,0.00072692332,-0.0015273513,30592.0,-15875.5,-18045.5,
130.239,-1.5591452,0.205478492,9.706269,-0.0017455816,0.0041909368,-0.0003282698,30592.0,-14851.5,-17277.5,
130.357,-1.5040786,0.198295884,9.651202,-0.0037440508,0.0009933859,7.142406e-05,30592.0,-15107.5,-18301.5,
130.474,-1.5399916,0.14322924,9.67275,-0.001878798,-0.0039361716,-0.0012608878,30080.0,-14851.5,-18301.5,
130.590,-1.5064728,0.16238287,9.615289,-0.0044102072,0.0049903208,-0.005524288,30336.0,-15107.5,-18045.5,
130.707,-1.5519626,0.207872684,9.605712,-0.0017455816,-0.0012715459,-0.0011276575,30336.0,-15875.5,-18301.5,
130.832,-1.568722,0.200690092,9.646414,-0.002411738,0.0020592324,0.00020465534,30592.0,-15619.5,-18557.5,
130.950,-1.580693,0.174353868,9.703875,-0.00014679134,0.0028586238,-0.0025932006,30336.0,-15619.5,-17533.5,
131.068,-1.5280206,0.16238287,9.667962,0.0026510656,-0.0024706236,0.00193666116,30848.0,-15875.5,-19069.5,
131.187,-1.5160496,0.17914226,9.713451,0.0010522902,0.00179276984,0.0018034298,30336.0,-15619.5,-17533.5,
131.306,-1.5423858,0.15520026,9.679933,-0.0045434236,0.0009933859,-0.0020602756,30592.0,-15619.5,-16765.5,
131.429,-1.5016844,0.198295884,9.689509,-0.0060089676,0.005256787,-0.0053910568,30848.0,-16643.5,-16253.5,
131.547,-1.484925,0.2126611,9.641625,-0.00414373,-0.0004721582,-0.0011276575,30336.0,-16131.5,-17533.5,
131.662,-1.5639336,0.198295884,9.691904,-0.004809886,0.00179276984,0.0015369672,30336.0,-15619.5,-18301.5,
131.781,-1.4992902,0.23181471,9.612895,0.000919044,0.00179276984,-0.002326738,30080.0,-16131.5,-18557.5,
131.899,-1.5232322,0.25096834,9.737393,-0.002811417,-0.0003389269,0.00047111884,30592.0,-15875.5,-18301.5,
132.022,-1.4705598,0.200690092,9.634443,0.0010522902,0.0029918552,0.001004043,30848.0,-15363.5,-19069.5,
132.140,-1.3867626,0.25096834,9.495579,-0.001878798,0.015782052,-0.0021935068,30336.0,-14851.5,-18045.5,
132.257,-1.5232322,0.171959668,9.620077,-0.0030778944,0.0077881776,-0.0013941191,30848.0,-15875.5,-18301.5,
132.376,-1.5471742,0.19111328,9.83795,-0.006675124,-0.00180447468,-0.0012608878,30592.0,-16131.5,-17277.5,
132.499,-1.5304148,0.25575674,9.622472,-0.0010794252,0.003791239,0.0012705056,30592.0,-16131.5,-17021.5,
132.616,-1.5040786,0.200690092,9.663174,-0.00414373,-0.0020709336,-0.000727963636,30080.0,-15875.5,-18557.5,
132.735,-1.556751,0.18153646,9.689509,-0.0050763636,0.0016595423,-0.0040587444,30336.0,-15619.5,-18557.5,
132.852,-1.6309712,0.12407564,9.634443,-0.0014791042,0.0003272295,0.0020698932,30592.0,-16131.5,-18045.5,
132.971,-1.556751,0.12407564,9.663174,-0.00014679134,0.0025921612,0.0015369672,30336.0,-16131.5,-18045.5,
133.095,-1.4873192,0.21026689,9.677539,-0.0022784918,0.0019260049,0.0016701994,30592.0,-16131.5,-18045.5,
133.215,-1.5016844,0.25096834,9.696692,-0.0037440508,0.007122021,-0.0003282698,30080.0,-15619.5,-17789.5,
133.331,-1.451406,0.18632488,9.689509,-1.3560057e-05,0.0076549464,-0.0043252064,30080.0,-16899.5,-18301.5,
133.448,-1.5136554,0.174353868,9.658385,-0.003344342,0.0003272295,-0.0047249004,30080.0,-16643.5,-18813.5,
133.566,-1.5160496,0.24378572,9.71824,-0.0012126416,0.006056171,0.0027360496,30592.0,-15619.5,-18301.5,
133.688,-1.5256264,0.198295884,9.667962,0.000785827636,-0.0034032464,-0.0024599694,29824.0,-16387.5,-18557.5,
133.808,-1.496896,0.2150553,9.629655,-0.0017455816,0.004857093,-0.00046150108,30080.0,-16131.5,-19325.5,
133.924,-1.508867,0.17674806,9.766124,-0.00067971648,-0.0020709336,-0.001793813,30848.0,-15875.5,-19325.5,
134.040,-1.5160496,0.174353868,9.660779,-0.0014791042,0.0053900144,-0.0049913632,30592.0,-16643.5,-17021.5,
134.158,-1.556751,0.2150553,9.677539,-0.0029446482,0.0033915452,0.00087081176,30848.0,-15875.5,-18301.5,
134.280,-1.5280206,0.16717127,9.605712,-0.0012126416,0.00072692332,0.000337886632,30336.0,-16387.5,-18301.5,
