# epoch_start_s=1774903441
timestamp_s,accel_x,accel_y,accel_z,gyro_x,gyro_y,gyro_z,mag_x,mag_y,mag_z
0.075,-0.7541735,-0.40222588,9.988609,0.028511486,0.0025313936,-0.058488516,-25984,27905,-11267
0.192,-0.6392518,-0.19632454,10.144233,-0.021183766,-0.07274425,-0.08646707,-24448,21505,-17923
0.307,-0.61770404,0.095768068,10.06283,-0.01851914,-0.10325421,-0.040635528,-23936,15617,-29955
0.422,-0.3184288,0.30166942,9.940725,0.06368453,-0.12417152,-0.033041348,-29312,13569,25597
0.536,-0.062249244,0.383072268,9.873688,-0.09605972,-0.12537059,-0.044099544,31360,12033,18685
0.658,-0.2705448,0.5722142,9.646238,-0.094993868,-0.025047474,-0.077407348,25728,10497,13565
0.772,-0.4237737,0.61052144,9.97185,-0.10458652,-0.06674885,-0.093928024,20352,9729,12541
0.886,-0.1316811,0.7038953,9.938332,-0.052626336,-0.14535528,-0.077673816,16512,7681,11517
1.001,-0.33758244,1.0247183,10.096349,-0.08686677,-0.17026952,-0.033041348,15232,5889,9213
1.117,-0.0023942016,0.9528923,9.828198,-0.18372588,-0.15001838,-0.014788668,12672,5121,7933
1.238,0.15562311,0.9552865,9.490616,-0.244745784,-0.11337979,-0.044898928,11904,4609,4861
1.355,0.22505496,0.7565677,9.411607,-0.25380552,-0.013189893,-0.005196018,9856,3841,4605
1.470,0.29927522,0.6799533,9.825804,-0.33121284,-0.07594181,-0.0030643184,7808,3329,5885
1.584,0.1388637,0.61770404,9.892841,-0.25433844,0.016653904,0.020784072,5760,3329,6653
1.700,0.373495468,0.30645782,10.2495776,-0.30256816,-0.0699464,0.015454824,3968,3841,7933
1.817,-0.08379706,0.4285621,9.964667,-0.27911946,-0.11298009,0.008260337,2944,5633,9469
1.937,0.29927522,0.06464344,10.125079,-0.3662527,-0.1283017,0.04729709,1664,7169,11005
2.051,0.5722142,-0.1316811,9.593566,-0.350664616,-0.09965697,0.026646248,1664,8449,11005
2.165,0.7302315,-0.45010992,9.394848,-0.43939664,-0.0912634,0.0009326187,1664,11521,12285
2.279,0.23223756,-0.6392518,9.533711,-0.33547628,-0.00053292496,0.061819296,896,14337,12541
2.395,0.47884036,-0.89782568,9.7803132,-0.29537364,-0.014921899,0.08047167,1664,17665,12029
2.511,0.5530606,-1.0726024,9.289502,-0.32921436,-0.0046630936,0.074476264,1920,19713,12285
2.632,0.5243302,-1.2042835,9.433155,-0.354528352,0.0233154668,0.035839204,3200,22017,12541
2.749,0.177170932,-1.4293384,9.931149,-0.25793568,0.01292343,0.06888055,4224,25345,11773
2.864,0.177170932,-1.5131354,9.672575,-0.20784072,0.027312404,0.09685911,4480,26625,10749
2.980,0.08140286,-1.496376,9.763555,-0.28205052,0.0009326187,0.054624808,6016,28161,10237
3.094,0.12449849,-1.685518,10.000581,-0.188788652,0.07900613,0.049961712,8320,29185,7933
3.211,-0.090979668,-1.7477672,9.557653,-0.25993412,0.09326187,0.035839204,8576,31233,9725
3.332,-0.076614456,-1.9416976,9.753978,-0.22209649,0.09592649,0.029310872,12416,31745,8189
3.449,-0.14844051,-1.958457,10.175357,-0.22103064,0.082869832,0.014788668,14464,32513,9213
3.565,-0.4381389,-1.8267759,9.785102,-0.1684043,0.044099544,-0.0010658499,14720,-31487,10237
3.681,-0.46447512,-1.9009962,9.821015,-0.24101532,0.011990812,0.011990812,14208,-31999,11261
3.797,-0.49799396,-1.946486,9.734824,-0.231422636,0.028777948,0.002264931,16768,-31231,11517
3.919,-0.770933,-1.87705416,9.730036,-0.20824042,0.06808116,-0.0010658499,20096,-31231,11773
4.034,-0.8523358,-2.087744,10.007763,-0.200779468,0.010392036,-0.02051761,26496,32513,12797
4.150,-0.9624691,-2.0685902,9.6845452,-0.1863905,0.031709034,-0.024514546,-32384,30209,13309
4.265,-0.94810384,-1.88184236,9.208099,-0.15747932,0.051294024,-0.03224196,-23680,27393,14589
4.381,-1.079785,-1.862689,9.651027,-0.07261103,0.08340275,-0.016653904,-16000,22785,20221
4.496,-1.091756,-1.8267759,9.689334,-0.09459418,0.0827366,-0.012124043,-7808,20481,29437
4.617,-1.1731589,-1.6065093,9.763555,-0.0303767232,0.013323124,0.0065283304,-2176,21505,-23299
4.734,-1.1372458,-1.6711528,9.765948,-0.0547580432,0.0063950996,-0.014122511,1920,22530,-6659
4.851,-1.055843,-1.4748282,9.830592,-0.11111485,-0.04729709,-0.014388974,1664,24066,9469
4.966,-1.340753,-1.2162545,9.847352,-0.04303369,-0.08300307,0.015987748,-896,25857,28413
5.080,-1.388637,-1.0007763,9.615114,0.028511486,-0.06381777,0.017053598,-5248,26369,-26115
5.202,-1.0869676,-0.866701,9.698911,-0.09139664,-0.0034640124,0.015321592,-9088,24321,-20739
5.316,-1.151611,-0.7086837,10.170568,-0.015987748,-0.015854517,0.009192956,-14464,24321,-11011
5.431,-1.0534488,-0.5626374,9.940725,-0.04423277,-0.016920368,0.019718224,-14976,20481,-16643
5.545,-1.2282255,-0.49320556,10.3932296,-0.15028484,-0.074476264,0.003996937,-15232,15361,-22275
5.663,-1.0606314,-0.378283868,10.058042,-0.11311332,-0.098191424,0.044499232,-13440,10753,28925
5.780,-1.42455,-0.1604115,10.127473,-0.10898315,-0.107517616,0.017453292,-12416,8193,13309
5.902,-1.3934254,-0.11252748,10.529699,0.007194487,-0.077540584,0.0247810116,-10368,5633,-6915
6.019,-1.1372458,0.038307228,10.0987424,-0.0495620232,-0.11950842,0.0047963244,-13696,4609,-24579
6.138,-0.8451532,0.021547814,10.19451,-0.10085605,-0.072477792,0.020784072,-21376,5121,24317
6.254,-1.1563994,0.2681506,9.835381,-0.052093416,-0.1454885,-0.033574272,-27520,6401,17661
6.368,-1.0366893,0.47405192,9.85214,0.002797856,-0.12696938,-0.010658499,30336,6401,14333
6.489,-0.90979668,0.6679823,9.797073,-0.035972436,-0.104320068,-0.0214502284,22400,4865,12029
6.606,-0.7422025,0.830788,10.149021,-0.00039969372,-0.10392036,-0.008526799,18816,4609,11773
6.720,-0.58897364,0.80924016,10.328587,-0.09272895,-0.170003068,0.0025313936,16000,4097,10237
6.837,-0.51475332,1.0175357,10.103531,-0.021316998,-0.15801226,-0.010924961,12672,3073,9981
6.954,-0.61052144,1.2018893,9.569624,-0.12856814,-0.10565238,-0.009992342,10624,1793,7677
7.070,-0.6895301,1.1061212,10.328587,-0.18186064,-0.09006432,-0.036105668,9600,513,7421
7.191,-0.5722142,1.1971009,10.024523,-0.179862168,-0.036372124,-0.021716694,8320,513,6141
7.309,-0.2633622,1.2162545,9.957485,-0.1931853,-0.105385912,-0.0006661562,6784,-767,6396
7.424,-0.49320556,1.3024458,9.691729,-0.19718222,-0.06315161,-0.018385912,6528,-255,4348
7.539,-0.088585464,1.0965444,9.624691,-0.25913476,-0.082470136,-0.0018652374,5248,-511,5628
7.656,0.01436521,1.0055647,9.91439,-0.244745784,-0.12190658,-0.02051761,4224,-511,6140
7.777,-0.05746084,0.9959879,9.615114,-0.30469984,-0.08806585,-0.019318528,3456,-767,4348
7.891,0.17238252,0.81402856,9.981427,-0.3766447,-0.077407348,-0.03996937,2432,-767,6140
8.005,0.16998832,0.6751649,10.010158,-0.3535957,-0.0976585,-0.026779478,1664,1,5629
8.119,0.16280572,0.46926352,10.120291,-0.2797856,-0.06341807,-0.03330781,896,257,7165
8.234,0.33518824,0.35194764,10.019734,-0.338540568,-0.07674119,-0.0251807024,384,513,7677
8.352,0.090979668,0.24420858,9.849746,-0.32575038,-0.06022052,0.011457887,-384,2048,7677
8.473,0.4405331,0.04309563,10.0508584,-0.34147168,-0.06488361,0.017320062,-128,3072,8957
8.588,0.24899698,-0.1604115,10.04607,-0.35719296,-0.04916233,0.01185758,128,4097,8189
8.702,0.4189853,-0.20111294,9.478644,-0.31629094,-0.040102604,0.007727412,1152,5633,6909
8.817,0.24660278,-0.373495468,9.512163,-0.32481778,-0.015854517,0.019451762,2432,7425,7677
8.934,0.354341868,-0.6703765,9.967062,-0.26672894,-0.028911179,0.008393568,3968,9217,6141
9.051,-0.05267244,-0.78290397,10.228029,-0.29164316,0.0041301684,0.022782542,5504,11521,4861
9.174,-0.035913024,-0.91937348,9.931149,-0.35799232,0.029577336,0.025313934,6016,13569,5373
9.290,-0.035913024,-1.0223241,10.09156,-0.27019296,0.016787136,0.03903675,8576,14849,4349
9.405,0.15322891,-1.2593501,9.813833,-0.29524044,0.02158346,0.04103522,10880,16641,4861
9.520,0.007182605,-1.436521,10.007763,-0.26939356,0.019584992,0.043699844,12160,18433,5117
9.636,-0.220266544,-1.5059528,9.859323,-0.28897856,0.0010658499,0.03144257,13184,20993,5629
9.753,-0.29448682,-1.6065093,9.809045,-0.23728484,0.033840736,0.028644716,15488,22785,8189
9.875,-0.2633622,-1.6232687,9.7084872,-0.22609342,0.054491576,0.023049004,17024,23297,8445
9.991,-0.320823,-1.81959332,9.950302,-0.22995712,0.03996937,0.0053292492,19072,22273,9213
10.106,-0.581791,-1.817199,9.742006,-0.2993706,-0.03450689,0.023448698,19584,22529,11517
10.221,-0.7182605,-1.81001652,9.921572,-0.2490092,-0.0054624808,-0.0010658499,20864,22529,13053
10.339,-0.59855044,-1.9728222,9.751583,-0.2170337,0.014522205,0.02691271,21376,22529,13821
10.460,-0.770933,-1.9369092,9.440337,-0.25780246,0.02251608,0.019052068,23680,20737,15357
10.574,-0.6655881,-2.1212628,9.844957,-0.22569372,0.01612098,-0.0042633996,26496,18177,17149
10.689,-0.7302315,-2.0925324,9.825804,-0.16400766,0.019851454,0.0046630936,26496,17153,20733
10.804,-0.9624691,-2.0135236,10.072407,-0.12736906,-0.018652374,0.0047963244,27008,15873,21757
10.920,-1.0414777,-1.922544,9.557653,-0.1654732,-0.056223584,0.037970904,28288,15873,24317
11.034,-1.1372458,-2.066196,9.940725,-0.14575498,-0.009326187,0.015321592,28800,12289,26365
11.155,-0.8355764,-2.0398598,9.679757,-0.13243185,-0.030643184,0.025580398,31104,12033,30973
11.271,-1.0103531,-2.0111294,9.900024,-0.105252668,-0.00026646248,-0.013056661,-32128,9473,-32003
11.394,-0.9600749,-1.84353532,9.77792,-0.08646707,-0.03530628,-0.0015987749,-31360,5633,-25347
11.509,-1.1683705,-1.685518,10.110714,-0.04822971,0.0784732,0.005995406,-29312,4353,-20227
11.623,-1.127669,-1.5514428,9.794679,-0.04529862,0.066349156,0.018918836,-26752,1537,-13827
11.743,-1.1875241,-1.3742718,9.595961,-0.03011026,0.034906584,0.0233154668,-23168,769,-8963
11.859,-1.2808978,-1.2401965,10.3214032,0.013323124,-0.09406125,-0.0063950996,-22144,1793,-515
11.976,-1.3814544,-0.90979668,10.340557,0.055157732,-0.09006432,0.002264931,-19840,1,5629
12.091,-1.3335704,-0.7613561,10.175357,0.013589587,-0.09073048,0.022382848,-17536,-3327,6908
12.206,-1.3814544,-0.35194764,9.854534,0.064217452,-0.08926493,0.041434916,-14720,-7167,3324
12.321,-1.151611,-0.2896984,9.765948,-0.014122511,0.03237519,0.03850383,-14976,-10751,-5892
12.440,-1.2162545,-0.02873042,9.694122,-0.00013323124,-0.010392036,0.022915774,-15232,-13823,-15620
12.556,-1.1851299,0.02873042,9.763555,-0.084601832,-0.06261868,0.0151883616,-17536,-14079,-24580
12.672,-1.5035586,0.361524436,9.849746,-0.00706125536,-0.043433388,0.018119448,-20864,-14847,-32004
12.790,-1.5562312,0.5410896,9.959879,-0.07674119,-0.07700766,0.055157732,-26496,-14079,27644
12.903,-1.2880806,0.58897364,9.847352,-0.043699844,-0.055024504,0.039169984,-31104,-12287,22780
13.025,-1.1779473,0.7278373,9.703699,-0.06022052,-0.08340275,0.017986218,30080,-10751,18172
13.139,-1.1779473,0.81402856,9.933543,-0.13896018,-0.1309663,0.032108728,25472,-9215,15100
13.255,-1.1971009,0.842759,9.753978,-0.12164012,-0.10058958,0.022116386,20352,-6911,13308
13.370,-1.30484,0.91458504,9.682152,-0.175332308,-0.08380245,-0.0026646248,17536,-5631,12284
13.485,-1.2761094,0.9768343,9.988609,-0.19052068,-0.05595712,0.02251608,16000,-5119,12540
13.599,-1.2138603,1.079785,9.828198,-0.13456355,-0.10498622,0.02025115,13696,-5375,10748
13.720,-1.0821792,1.0031705,9.931149,-0.17919602,-0.08513476,0.0062618684,12160,-4351,11260
13.835,-1.1180922,1.1731589,10.014946,-0.1267029,-0.1079173,0.045831548,11392,-3583,10492
13.951,-0.7781156,1.1013328,9.825804,-0.13536294,-0.09672587,0.06648239,8576,-3071,10492
14.065,-0.6703765,1.0582372,9.861717,-0.14322358,-0.12417152,0.040102604,9088,-4095,9212
14.180,-0.7134721,1.0414777,10.223241,-0.19624962,-0.070346092,0.007194487,7808,-3327,8444
14.301,-0.533907,1.0749966,9.952697,-0.14988515,-0.10072281,0.014788668,6528,-3071,7676
14.416,-0.7158663,1.1875241,9.923966,-0.18332618,-0.08819909,0.053026036,6272,-3327,7164
14.531,-0.5363012,1.1468226,9.619903,-0.211970916,-0.1185758,-0.0026646248,4992,-3071,6908
14.649,-0.61052144,1.1420342,9.811439,-0.249675344,-0.08433538,0.00359724336,4224,-2815,6908
14.767,-0.2777274,0.91219084,10.103531,-0.26886064,-0.105385912,0.0021316998,2688,-2303,7420
14.884,-0.47884036,1.0366893,9.950302,-0.22422818,-0.1061853,0.0014655436,1664,-1791,6396
15.005,-0.47405192,0.9648633,9.967062,-0.20584226,-0.09885758,0.010392036,896,-2815,6908
15.120,-0.24420858,0.8475474,9.878476,-0.33334458,-0.10765084,0.00013323124,-128,-2560,7164
15.235,-0.15083471,0.7541735,10.000581,-0.31029556,-0.10445329,0.0037304748,-128,-2304,7932
15.352,-0.04309563,0.60812724,10.323798,-0.28711334,-0.14322358,-0.010125575,-896,-1024,8956
15.469,-0.1412579,0.581791,10.120291,-0.2635314,-0.14988515,0.012790199,-1664,-256,10492
15.583,-0.21068976,0.46686932,10.218452,-0.25473812,-0.13296478,0.057289432,-1408,768,10493
15.704,0.179565132,0.363918668,9.682152,-0.25953444,-0.08167075,0.038637056,-2432,1280,10749
15.822,0.25139116,0.007182605,9.737218,-0.3172236,-0.046764164,0.05062787,-2688,3328,12285
15.935,0.35194764,-0.1316811,9.818622,-0.38397244,-0.045431852,0.01292343,-2688,5376,12797
16.049,0.2873042,-0.4309563,10.199299,-0.4187458,-0.09885758,-0.014122511,-2432,7424,13565
16.163,0.14844051,-0.46447512,9.574412,-0.4111516,-0.06754824,-0.009992342,-2432,9984,12797
16.282,0.2825158,-0.6943185,9.85214,-0.353062768,-0.048895864,0.023049004,-2176,12032,11773
16.397,0.10773908,-0.91697928,9.909601,-0.34813324,-0.056223584,0.033973964,-896,14336,12797
16.515,0.15801731,-1.0534488,9.782708,-0.33933996,-0.056223584,0.046364476,-384,16384,12285
16.631,0.16759412,-1.1611878,9.871294,-0.25647014,0.062218988,0.06768147,896,17921,11005
16.746,0.19871874,-1.5921441,9.895236,-0.397428768,0.014921899,0.016920368,1664,20481,11005
16.863,0.09816227,-1.5275006,9.902418,-0.2204977,0.04942879,0.028644716,4736,21761,8701
16.982,-0.04309563,-1.6687586,10.01734,-0.22929096,0.034773352,-0.009992342,4480,23297,9725
17.096,-0.17238252,-1.6184803,9.969456,-0.2648637,0.0303767232,0.016387442,5248,23553,9981
17.213,-0.1316811,-1.661576,10.019734,-0.19891424,0.024114854,-0.018918836,9088,22273,7677
17.328,-0.4285621,-1.661576,10.077195,-0.19251914,0.031842264,0.017320062,11648,22785,8445
17.444,-0.5650316,-1.7741034,9.911995,-0.222362936,0.03703828,0.01718683,11648,23297,8701
17.559,-0.7182605,-1.7381904,9.993398,-0.23608574,0.03450689,0.009059724,11648,23809,9981
17.679,-0.6919243,-1.89620768,9.68694,-0.2375513,0.027312404,0.026513018,12416,25345,11773
17.794,-0.6967127,-1.9321208,9.911995,-0.24088208,0.047963248,-0.004396631,14976,24833,11773
17.909,-0.6847417,-1.9297266,9.710882,-0.19345174,-0.041301684,0.011990812,14976,25089,14077
18.024,-0.7541735,-1.9632454,9.694122,-0.195317,-0.004396631,-0.015721286,20352,21249,15357
18.138,-0.94092125,-1.9512744,9.713276,-0.18798928,0.027445634,0.007727412,22400,19969,16637
18.261,-1.0893618,-1.934515,9.548077,-0.20117916,0.06101991,0.009725881,23424,18433,17149
18.375,-1.0941502,-2.0470424,10.15381,-0.23701838,-0.0067947932,0.003863706,24448,19457,20477
18.490,-1.1348516,-2.0733786,9.842564,-0.17413322,0.048362936,0.04330015,29824,17665,25597
18.605,-1.2593501,-1.9129672,9.409213,-0.17546554,-0.038903524,0.03344104,-32640,16641,28669
18.720,-1.1061212,-1.9608512,9.442732,-0.109249616,0.019718224,0.003996937,-28032,15873,-30723
18.837,-1.2018893,-1.9033904,9.864111,-0.1168438,0.010125575,-0.010392036,-23936,14593,-21763
18.958,-1.3670892,-1.7238252,9.603143,-0.05435835,0.013056661,0.010924961,-22656,16385,-12291
19.074,-1.328782,-1.7381904,9.89763,-0.077540584,-0.016520674,0.007860643,-22144,16641,-2051
19.188,-1.484405,-1.5753847,10.429143,-0.057422664,-0.0377044384,0.011324655,-22656,18945,7421
19.306,-1.80522816,-1.364695,9.885659,-0.082470136,-0.040369064,0.047563552,-26496,21761,19965
19.422,-1.6304513,-1.1827357,9.770737,0.058888208,-0.0041301684,0.061686064,-31616,24833,30461
19.545,-1.4317326,-0.9840169,9.787497,0.014255743,-0.048629404,0.028511486,27520,25857,-25347
19.663,-1.1994951,-0.787692336,9.691729,-0.00026646248,-0.047563552,0.03956968,23680,24577,-21251
19.780,-1.4053964,-0.60812724,10.228029,-0.04183461,-0.08113782,0.056623276,21632,21505,-18179
19.895,-1.4437036,-0.33279404,10.139444,0.0061286368,-0.08939816,0.026779478,22400,18177,-19715
20.011,-1.1420342,-0.191536132,9.572019,-0.019451762,-0.070479332,0.015454824,27008,11521,-31747
20.134,-1.2138603,-0.016759412,9.835381,-0.045964776,-0.07261103,0.05369219,-32640,4609,17917
20.249,-1.2425907,0.033518824,10.187328,-0.0210505368,-0.07993874,0.0041301684,-30592,513,765
20.366,-0.90740248,0.24420858,9.454702,-0.10338744,-0.05795559,0.00013323124,-29824,-1279,-9988
20.482,-0.9864111,0.2657564,9.947908,-0.08953139,-0.04316692,0.016520674,-28800,-3071,-19460
20.595,-1.1755531,0.34476504,9.799467,-0.10565238,-0.0074609496,-0.011724349,32640,-3071,-27908
20.712,-0.94331544,0.4309563,9.878476,-0.11884227,-0.1087167,0.0303767232,30336,-3583,30460
20.833,-0.93852708,0.60333884,9.792285,-0.15494794,-0.11111485,0.003863706,25984,-2815,22780
20.948,-0.8714894,0.5626374,9.674969,-0.1637412,-0.08633384,-0.00039969372,23168,-2047,19452
21.061,-0.7326257,0.61770404,9.981427,-0.13869372,-0.09326187,-0.002264931,20864,-1535,17660
21.175,-0.90261408,0.7278373,9.854534,-0.16813782,-0.11417917,0.024114854,16768,-1023,16636
21.290,-0.7086837,0.7110779,10.041282,-0.09366156,-0.09166309,0.018785606,16000,-1279,15612
21.409,-0.7398083,0.7493851,10.225636,-0.114712104,-0.07660796,0.010658499,13952,-1279,15100
21.525,-0.7565677,0.90740248,9.931149,-0.1530827,-0.09872434,0.01079173,12160,-1791,13820
21.638,-0.59615624,0.9696517,9.82341,-0.11018224,-0.090996936,0.032908116,11648,-1279,13564
21.752,-0.6368576,1.1180922,9.698911,-0.11910873,-0.10631853,-0.007327718,9088,-1791,12796
21.867,-0.361524436,0.9720459,9.821015,-0.19012096,-0.08739969,0.035839204,7040,-2559,12284
21.982,-0.35194764,0.92176768,10.0987424,-0.20610872,-0.10591883,0.028111792,5248,-3071,13052
22.105,-0.320823,0.91219084,9.830592,-0.26113322,-0.09486064,-0.018119448,3456,-3327,13308
22.218,-0.4165911,0.9983821,10.235212,-0.2511409,-0.13069984,-0.021983154,2944,-2815,11772
22.333,-0.260968,0.91697928,10.096349,-0.2371516,-0.07114548,-0.040635528,1152,-2559,11260
22.449,-0.4381389,1.0007763,10.043676,-0.29603982,-0.048895864,-0.02358193,896,-2559,11004
22.564,-0.354341868,0.8643068,10.084377,-0.25380552,-0.14562174,-0.026246556,-128,-1792,12540
22.687,-0.50517652,0.8643068,10.007763,-0.20704136,-0.13189892,-0.029444104,-896,-2816,12796
22.803,-0.22266076,0.82360536,9.811439,-0.23275496,-0.110315464,-0.01385605,-1152,-2304,13308
22.919,0.1364695,0.61530984,9.674969,-0.26579632,-0.06328484,-0.034640124,-2432,-2048,12284
23.033,0.04309563,0.5386954,10.031705,-0.30096936,-0.09166309,-0.024514546,-1920,-1024,13820
23.148,0.19871874,0.368707068,9.600749,-0.312294,-0.0443660032,-0.033041348,-2688,-256,14076
23.264,0.1316811,0.25857376,9.998186,-0.3344104,-0.095127108,-0.0303767232,-2688,256,13565
23.385,0.031124622,0.12689268,10.134656,-0.3112282,-0.07114548,-0.017852986,-3200,1280,14845
23.500,0.05746084,0.062249244,9.703699,-0.2115712,-0.009192956,-0.007860643,-3200,2816,15101
23.613,0.11252748,-0.14604631,9.921572,-0.3177565,-0.0210505368,-0.012656967,-2176,3328,15357
23.730,0.16759412,-0.20590134,9.667787,-0.3695835,0.016387442,-0.0210505368,-2176,4096,14589
23.846,0.05746084,-0.39504328,10.055647,-0.3458683,-0.010392036,0.015588055,-896,5632,14077
23.961,-0.023942016,-0.5410896,9.859323,-0.26126644,-0.008260337,0.021316998,-384,7936,13053
24.081,-0.12210429,-0.62967504,9.595961,-0.3016355,-0.017852986,0.017586524,896,9473,14077
24.203,-0.2681506,-0.7302315,9.832987,-0.284049,-0.03956968,-0.008393568,2432,10241,12029
24.315,-0.17477672,-0.8571242,9.77792,-0.3044334,0.0,0.019584992,2432,12033,13053
24.427,-0.2801216,-0.8499416,10.0029748,-0.231422636,0.0050627872,-0.01851914,3968,13825,12541
24.544,-0.50757076,-1.1085154,10.0508584,-0.32881472,0.0011990811,0.03117611,5760,14337,13053
24.667,-0.50996492,-1.1204864,9.452309,-0.23022358,0.008926493,0.058621744,6272,16385,13565
24.782,-0.6368576,-1.3263878,10.031705,-0.235552832,0.014522205,0.034906584,7808,17665,14589
24.899,-0.5291186,-1.400608,9.940725,-0.2106386,0.019984684,0.022382848,9088,17665,14845
25.012,-0.6464345,-1.42455,9.921572,-0.1957167,0.02784533,0.007727412,11904,16385,15869
25.124,-0.8595184,-1.42455,10.25676,-0.19465084,0.01718683,-0.0058621744,14720,16129,16893
25.237,-0.7661445,-1.3359646,10.314221,-0.19598316,0.0006661562,0.008127105,17280,14849,16893
25.359,-0.80445176,-1.4580688,10.316615,-0.16360796,0.03117611,0.013189893,19584,13825,19965
25.475,-0.7493851,-1.3551182,9.720459,-0.17493262,0.0067947932,0.0030643184,22912,11521,19965
25.591,-0.9840169,-1.400608,10.21127,-0.16933692,-0.0061286368,-0.005196018,26240,9729,21501
25.705,-0.8619126,-1.3599066,10.0029748,-0.16414088,-0.016920368,0.014522205,29056,7937,23037
25.822,-1.1348516,-1.3670892,10.371682,-0.14069219,-0.01385605,0.009059724,31872,6913,26365
25.943,-1.2066777,-1.2497733,10.060435,-0.062485452,-0.021316998,0.0050627872,-31104,4865,29437
26.061,-1.2258313,-1.0821792,9.940725,-0.008926493,0.014522205,0.019185298,-27520,3073,-31747
26.177,-1.0845734,-0.9576807,9.816227,-0.035705972,0.020650842,0.011058193,-27264,1281,-29443
26.293,-1.4101849,-0.6560113,9.880871,-0.00053292496,-0.012656967,0.033574272,-26240,1,-25091
26.409,-1.4317326,-0.61770404,9.765948,-0.051294024,0.011457887,0.04183461,-27008,-1279,-23044
26.525,-1.3623008,-0.545878,9.643845,-0.09779173,0.012656967,0.026246556,-27520,-2559,-19716
26.645,-1.3072342,-0.45729252,10.029311,-0.061419604,0.014255743,0.008660031,-27008,-3839,-16388
26.763,-1.2282255,-0.383072268,9.89763,-0.12537059,0.0075941808,0.007727412,-27264,-4607,-12292
26.879,-1.4293384,-0.21308396,10.151415,-0.07860643,-0.03530628,0.013456355,-28288,-4607,-9220
26.994,-1.5275006,-0.088585464,10.292673,-0.052759572,-0.013323124,0.007194487,-27520,-5887,-7684
27.110,-1.3790602,0.01436521,10.180145,-0.110715168,-0.06261868,0.02571363,-29568,-7423,-8964
27.232,-1.2186487,0.12689268,10.247183,-0.08540122,-0.10085605,0.02251608,-31360,-8191,-15108
27.347,-1.1204864,0.11731588,10.25676,-0.06794793,-0.1125804,0.05395865,30592,-7423,-24580
27.463,-0.9864111,0.24899698,9.849746,-0.11231393,-0.10845023,0.028777948,26240,-6143,31996
27.578,-0.936132864,0.23702596,9.923966,-0.11204748,-0.09885758,0.015321592,23424,-5375,26876
27.694,-1.0654198,0.51475332,9.854534,-0.06967994,-0.07700766,0.0061286368,20096,-5631,23292
27.808,-1.2497733,0.62967504,9.876082,-0.124970904,-0.09845789,0.028777948,17536,-5631,20732
27.930,-0.93852708,0.6584055,10.105926,-0.07674119,-0.115644716,0.026113322,14976,-5375,18172
28.047,-0.936132864,0.81881692,9.701305,-0.09566003,-0.1373614,0.014921899,12928,-4863,17404
28.163,-0.8331822,0.8738836,9.888053,-0.11178101,-0.15175038,-0.010658499,10624,-5375,15100
28.278,-0.91697928,0.94092125,10.103531,-0.17906278,-0.17919602,0.019185298,8832,-5119,11772
28.397,-0.60094464,0.9576807,9.962274,-0.18279328,-0.12803522,0.010258805,7808,-4863,10236
28.518,-0.320823,0.811634368,9.82341,-0.249941808,-0.0912634,-0.01851914,6272,-4607,10492
28.632,-0.40222588,0.78290397,9.986216,-0.23888362,-0.07780705,0.0031975498,5248,-4607,9724
28.749,-0.12449849,0.60573304,10.055647,-0.28924504,-0.09965697,-0.01292343,3712,-4607,8444
28.865,-0.29688102,0.5291186,10.096349,-0.3790429,-0.13269831,-0.04822971,2688,-3583,10748
28.980,-0.090979668,0.50517652,9.983821,-0.31522512,-0.11750995,-0.032108728,640,-3071,10236
29.095,-0.361524436,0.48362876,9.89763,-0.20264472,-0.08326952,-0.0018652374,128,-2559,10492
29.217,-0.15083471,0.3878607,10.072407,-0.24741042,-0.09539356,-0.0062618684,-1152,-1792,12028
29.332,-0.04070143,0.20590134,9.7324296,-0.29723892,-0.08007197,0.04090199,-2176,-1024,12284
29.446,0.2777274,-0.059855044,10.175357,-0.369183768,-0.03996937,-0.01505513,-2176,0,12541
29.561,0.2777274,-0.23942018,10.572795,-0.32042112,-0.06661562,-0.043433388,-3200,768,15613
29.676,-0.12689268,-0.16998832,9.91439,-0.3261501,-0.058488516,0.008393568,-4736,2304,15613
29.795,-0.062249244,-0.45968672,9.694122,-0.33254516,-0.005196018,-0.0015987749,-5760,3328,17149
29.910,-0.12928688,-0.5482722,9.452309,-0.35173048,-0.052226644,0.02997703,-6272,4608,16637
30.025,0.23463176,-0.7302315,9.31105,-0.31296018,-0.007327718,0.039169984,-6528,7168,18173
30.139,-0.2633622,-0.9959879,9.959879,-0.3429372,-0.0037304748,-0.01185758,-5248,8192,17917
30.252,-0.25378536,-1.1755531,9.68694,-0.35466156,-0.01385605,0.02038438,-4224,10240,17405
30.366,-0.30885202,-1.3742718,9.593566,-0.33374426,0.019451762,0.037837672,-2688,12544,15869
30.488,-0.15801731,-1.6041151,9.844957,-0.36558656,0.036372124,0.008526799,-1664,13312,15357
30.604,-0.4165911,-1.862689,10.30225,-0.360124032,0.06235222,0.004396631,1152,15873,14845
30.721,-0.4237737,-1.9129672,9.832987,-0.2226294,0.05062787,0.03850383,2688,17409,14333
30.834,-0.4285621,-2.0231004,9.983821,-0.29310872,0.046497704,0.020650842,4736,18689,14333
30.950,-0.58897364,-2.0470424,9.746795,-0.21556814,0.043699844,0.03743798,6272,19713,15101
31.071,-0.5602432,-2.1428106,9.787497,-0.23168912,0.0009326187,0.007194487,8320,20737,16893
31.185,-0.821211136,-2.0614076,9.636662,-0.19838132,0.09219602,0.044499232,9856,20481,17149
31.301,-1.2545617,-2.147599,9.619903,-0.172534452,-0.02384839,0.0010658499,11904,20225,19453
31.417,-1.0127473,-2.0757728,9.627085,-0.1360291,0.043433388,-0.0058621744,13440,18945,19709
31.533,-0.825999536,-2.0566192,9.648633,-0.198781,0.06741501,-0.030909648,13952,17665,21757
31.648,-1.0749966,-2.1021092,10.101137,-0.120840732,0.033973964,-0.064217452,15488,16385,25853
31.771,-1.2042835,-1.9776106,9.811439,-0.09179632,0.067281776,-0.09019755,17536,11265,28925
31.885,-1.4293384,-1.78368032,10.031705,-0.04396631,0.0763415,-0.09685911,19584,7425,-30979
32.000,-1.1372458,-1.697489,10.398018,-0.002797856,0.056623276,-0.150951,21376,2561,-24323
32.114,-1.5801731,-1.2114661,9.588778,-0.0019984686,0.055157732,-0.11484533,21376,-2047,-17924
32.231,-1.4580688,-1.2234371,9.61272,-0.008127105,-0.1736003,-0.35466156,20864,-6399,-13316
32.351,-2.1260512,-0.49320556,9.552865,-0.055024504,-0.17386676,-0.19478406,20352,-10751,-9476
32.467,-1.0031705,-0.9816227,10.156203,-0.013323124,-0.020784072,-0.23941654,18816,-13567,-6916
32.583,-1.2593501,-0.6584055,10.445902,-0.044499232,0.007727412,-0.3041669,16512,-17407,-6404
32.698,-1.1252748,-0.371101236,10.213664,-0.053558956,0.0009326187,-0.266196,15232,-19967,-8452
32.814,-0.787692336,-0.15083471,10.213664,-0.027445634,-0.002264931,-0.11631087,13440,-24831,-10500
32.932,-1.3455414,0.22744916,10.113108,0.09219602,-0.031575808,-0.1714686,12672,-29951,-14596
33.053,-1.2282255,0.46926352,10.651803,0.11364625,0.031975496,-0.20024656,10880,28673,-22532
33.170,-1.2210429,0.7254431,10.077195,0.15281622,-0.01385605,-0.077673816,9600,23809,-28676
33.286,-1.3575124,1.1252748,9.811439,0.104053592,-0.0031975498,-0.07927258,7296,18433,30972
33.402,-1.4149732,1.3096284,10.682928,-0.0046630936,-0.049961712,-0.09152986,5248,16897,24572
33.517,-1.3239936,1.3910312,9.560047,-0.06981317,0.26899384,-0.019318528,4224,14849,19964
33.638,-2.0087352,1.7741034,9.370906,-0.019718224,0.246611024,0.009326187,1408,16129,15356
33.754,-1.89381336,1.9895816,9.083601,0.01292343,0.14642114,0.058754976,-1664,18432,14588
33.870,-2.1332338,1.9632454,9.504981,0.06395099,0.027045942,0.06661562,-4480,19968,10236
33.985,-2.1284454,2.1906946,10.0508584,0.0518269536,0.067148548,0.009192956,-7040,20480,6396
34.103,-3.1914708,2.5953148,9.382876,0.017986218,0.06381777,0.0021316998,-10112,20992,4092
34.218,-2.7820624,2.542642,9.461885,-0.09659265,-0.08646707,0.020650842,-15488,20224,2044
34.338,-2.4468742,2.5594016,9.165004,-0.13549617,-0.13682848,-0.04516539,-18816,19712,508
34.453,-2.516306,2.4708162,8.99741,-0.25806892,-0.18239356,-0.104320068,-21888,20480,-1540
34.568,-2.2481554,2.5258828,9.524135,-0.32561712,-0.25993412,-0.041301684,-24448,20736,-1796
34.684,-2.231396,2.4468742,9.172187,-0.3016355,-0.26513016,-0.07900613,-26240,22016,764
34.797,-2.054225,2.291251,9.136273,-0.476701368,-0.28258348,0.016653904,-27264,22784,2556
34.912,-1.9201498,2.018312,9.722853,-0.48855896,-0.2691271,0.02917764,-26752,25856,3068
35.032,-1.3862428,1.6208745,9.43076,-0.4993507,-0.346268,0.04916233,-25728,28416,5372
35.145,-1.0606314,1.2593501,9.64145,-0.488026016,-0.391300136,0.03104288,-24704,32256,7676
35.262,-1.0654198,0.93852708,9.433155,-0.58981468,-0.41514852,0.06874732,-21376,-29952,9724
35.377,0.011971008,0.25378536,9.76116,-0.52040124,-0.401026,0.042367532,-18560,-25600,11772
35.490,-0.2825158,0.2681506,9.703699,-0.435,-0.246877484,0.044499232,-16000,-21248,11772
35.609,-0.4357447,0.15562311,10.412383,-0.28031852,-0.740366,0.013056661,-12416,-17920,12028
35.725,0.5482722,-0.6727707,9.835381,-0.4222098,-0.1743997,0.06541654,-9344,-14848,11772
35.837,0.5554548,-0.8523358,10.220847,-0.433267968,-0.15841195,0.06661562,-7040,-12800,11004
35.953,0.7781156,-0.9672575,10.160992,-0.44898928,-0.16653904,0.0518269536,-3200,-10496,10748
36.069,0.9552865,-1.2880806,10.13705,-0.4038239,-0.122572732,0.01825268,-1152,-8960,11004
36.184,0.6536171,-1.460463,9.923966,-0.3877029,-0.07873966,0.069280248,1920,-7423,9724
36.303,0.806845936,-1.7429788,9.68694,-0.38064164,-0.01398928,0.123771824,4992,-4607,8956
36.419,1.0726024,-2.0254946,9.636662,-0.36785148,-0.01185758,0.11178101,7296,-3583,8444
36.534,0.8331822,-1.88423668,9.555259,-0.3607902,-0.08406891,0.09073048,9600,-2047,8956
36.648,0.93373864,-2.1092918,9.382876,-0.29404134,0.0013323124,0.0844686,11904,-511,9980
36.763,0.3878607,-2.2122424,9.615114,-0.31375956,0.024647778,0.17773048,13952,1281,12029
36.878,0.39504328,-2.4540568,9.842564,-0.22569372,0.09219602,0.19345174,15488,3073,14333
37.004,0.033518824,-2.3511062,9.066842,-0.17373354,0.057422664,0.236218992,16000,4865,17661
37.121,-0.59136784,-2.2290018,10.307038,-0.221430332,0.03144257,0.183459432,17024,6657,18941
37.239,0.20590134,-2.3870192,9.92636,-0.09006432,0.055024504,0.22209649,18304,6657,22781
37.355,-0.46447512,-2.1164744,10.0341,-0.07261103,0.01185758,0.12776876,19840,6145,23293
37.469,-0.4189853,-2.099715,9.557653,-0.065683,0.07261103,0.08739969,20864,5889,25853
37.587,-0.191536132,-1.9776106,9.765948,-0.12736906,0.04516539,0.064084224,22144,4097,28413
37.703,-0.47165772,-1.9129672,10.125079,-0.187856052,0.03011026,0.057022972,25472,2561,32253
37.822,-0.60094464,-1.86029468,10.271125,-0.10671823,0.01625421,0.07794027,28544,1025,-28931
37.939,-0.59615624,-1.7190368,10.141838,-0.09579326,0.016787136,0.07221133,29824,513,-25347
38.054,-0.8355764,-1.5131354,9.866506,-0.06954671,0.012523737,0.10352068,31872,1,-21507
38.168,-1.0654198,-1.3263878,9.698911,-0.029843798,-0.0017320062,0.150951,-32384,1,-20227
38.290,-0.6368576,-1.520318,10.429143,-0.04729709,-0.005196018,0.13376416,-30848,-255,-15620
38.404,-1.2545617,-1.0534488,9.457097,-0.014788668,0.011990812,0.12896784,-28544,-1791,-13316
38.519,-1.0654198,-0.8571242,9.718064,0.015588055,0.015721286,0.080604892,-26752,-3583,-8452
38.634,-0.8475474,-0.806845936,10.019734,-0.061819296,0.07580858,0.06541654,-26752,-5119,-2052
38.749,-1.364695,-0.50757076,10.060435,-0.02584686,0.064217452,0.06501684,-25728,-8703,2812
38.869,-1.6232687,-0.33039984,10.666168,0.060486984,0.014921899,0.03117611,-22912,-12287,2300
38.985,-1.352724,0.033518824,10.024523,0.029310872,-0.027312404,0.046764164,-24704,-16383,-5892
39.101,-1.316811,0.24181438,9.935937,-0.09179632,-0.03663859,0.0571562,-26496,-16639,-18692
39.214,-1.4077906,0.34476504,9.895236,-0.06594946,-0.05835528,0.07114548,-29312,-15871,-27652
39.328,-1.3192052,0.50038816,9.888053,-0.055024504,-0.09046401,0.075542116,-32384,-14335,29692
39.443,-1.2330139,0.6919243,10.19451,-0.0422343,-0.09885758,0.115511484,27264,-12031,23292
39.563,-1.2186487,0.6991069,10.299856,-0.043699844,-0.14109188,0.11164778,19584,-9215,18684
39.680,-0.8619126,0.91937348,9.624691,-0.06448392,-0.18452526,0.01851914,12928,-7423,14844
39.793,-0.81881692,0.9935937,10.240001,-0.08513476,-0.16174273,0.06954671,7808,-6399,12540
39.908,-0.7781156,0.94810384,10.374076,-0.17639818,-0.223961716,0.09272895,3456,-7167,12284
40.024,-1.151611,1.1803415,10.144233,-0.1999801,-0.243546708,0.009059724,1408,-7167,11004
40.141,-0.92655608,0.9648633,10.500969,-0.21596784,-0.079805512,-0.09033078,-384,-6400,10236
40.262,-0.371101236,0.878672,9.938332,-0.1377611,-0.004929556,0.016387442,-2944,-6400,10748
40.376,-0.60094464,0.81881692,10.09156,-0.241681468,0.02997703,0.03650536,-4224,-5888,11516
40.492,-0.89782568,0.7517793,9.574412,-0.35093108,0.0754088768,0.115644716,-6528,-4864,12540
40.609,-0.34237084,0.33997664,9.720459,-0.2482098,0.12124042,0.0303767232,-8320,-3584,16124
40.725,-0.62728084,0.49559976,9.591172,-0.27538896,0.003996937,0.019052068,-10112,-2816,16124
40.846,-0.5434838,0.19393034,10.144233,-0.37251456,-0.11617764,-0.018119448,-10880,-1280,18428
40.963,-0.9648633,0.12689268,9.840169,-0.363987736,0.087666152,0.10112251,-12672,0,18685
41.079,-0.6464345,0.05267244,9.691729,-0.4175467,-0.05249311,0.049961712,-12672,2304,19965
41.192,-0.9983821,-0.25617956,10.486604,-0.3534625,-0.072477792,0.05169372,-13184,4608,20733
41.307,-1.4149732,-0.39983168,10.01734,-0.37544564,0.0075941808,0.15987748,-12672,7936,21757
41.422,-0.842759,-0.802057536,10.2495776,-0.2443461,0.11724349,0.25140736,-11648,11008,22525
41.560,-1.2306197,-0.59136784,8.9040368,-0.4026248,-0.14149158,0.17080244,-11904,13312,22781
41.678,-1.1420342,-0.8643068,10.086772,-0.2554043,0.010125575,0.04743032,-9600,16128,23037
41.793,-0.8355764,-1.2114661,10.603919,-0.3799755,-0.06288514,0.07394334,-9344,18688,23549
41.907,-0.49559976,-1.4341268,9.576807,-0.19864778,-0.030776416,0.12337213,-7040,20992,22269
42.023,-1.0151415,-1.316811,9.878476,-0.32175344,-0.051294024,0.048895864,-6016,23296,22781
42.144,-1.055843,-1.4676456,9.543288,-0.3237519,0.02784533,0.018119448,-4736,25088,21501
42.257,-1.4269442,-1.685518,10.388441,-0.21969832,0.17093568,0.04609801,-2432,27136,22269
42.372,-1.1563994,-1.79325716,9.928755,-0.2546049,0.072078092,0.00359724336,-1152,28160,22781
42.489,-1.1683705,-1.9009962,9.945514,-0.3041669,0.04743032,-0.05609035,1152,30209,22525
42.603,-1.3120226,-2.087744,9.82341,-0.3258836,0.026379786,-0.056756508,3200,30977,24317
42.716,-1.508347,-2.066196,9.631873,-0.17972894,0.05995406,-0.029843798,7296,32513,25597
42.835,-1.460463,-2.0039468,9.469068,-0.2796524,0.01851914,-0.026113322,9856,31233,27645
42.948,-1.9680338,-1.88902516,9.713276,-0.17213476,0.0495620232,-0.013323124,13696,29697,31229
43.066,-1.84353532,-1.82917008,9.813833,-0.025313934,0.14695406,0.058488516,19328,28929,-29443
43.184,-1.85311216,-1.7477672,10.031705,0.059554364,-0.16960336,0.01825268,25216,26881,-21763
43.301,-1.83156432,-1.5346834,10.366894,-0.00026646248,-0.015588055,-0.02038438,30592,24065,-11267
43.424,-1.7429788,-1.2545617,10.31901,0.16054364,0.010125575,0.07314395,-30336,21249,-771
43.540,-1.88184236,-1.0342951,10.354922,-0.017852986,-0.090996936,0.021849922,-29568,20225,8957
43.659,-1.721431,-0.830788,9.916783,0.0067947932,-0.11924196,0.07314395,-29824,18433,16381
43.772,-1.8722657,-0.61770404,10.213664,-0.037970904,-0.024114854,0.027179174,-30848,17665,22013
43.891,-2.042254,-0.33758244,9.92636,-0.065683,-0.049029092,0.06954671,-31360,15873,28669
44.003,-1.9560628,-0.33039984,10.58716,-0.092995408,-0.03663859,0.062485452,32384,14849,-31491
44.123,-1.5969325,-0.23942018,10.007763,-0.0554242,-0.04090199,0.100189896,-30848,12545,32253
44.240,-1.6903064,-0.0023942016,9.892841,-0.0754088768,-0.0026646248,0.13642879,-29056,9985,32765
44.357,-1.9512744,0.0,10.364499,-0.027179174,0.008926493,0.16627258,-29568,8961,30973
44.472,-1.5945383,0.076614456,10.220847,-0.017453292,-0.061286368,0.109249616,-28288,6913,24061
44.589,-1.5945383,0.179565132,9.844957,-0.18119448,0.07594181,0.14175804,-27776,6401,9725
44.711,-1.7429788,0.5434838,9.892841,-0.069413468,-0.13869372,0.08033844,-29312,7169,-5635
44.825,-1.5275006,0.5770026,9.854534,-0.079672284,-0.10352068,0.07301072,-31104,7937,-20483
44.939,-1.3503298,0.7326257,10.144233,-0.018918836,-0.117776416,0.080604892,28544,8193,-30723
45.057,-1.3311762,0.8714894,9.490616,-0.0503614036,-0.12390505,0.06754824,21632,8961,27133
45.172,-1.3072342,0.8690952,9.9550904,-0.07913936,-0.13243185,0.05795559,17536,8449,25085
45.287,-1.2617443,1.0869676,9.746795,-0.074476264,-0.1462879,0.05795559,13696,7937,22525
45.408,-0.80445176,1.0869676,9.878476,-0.0866003,-0.14388974,0.047563552,10368,6657,20989
45.522,-0.90979668,1.3144168,9.947908,-0.10218836,-0.13709494,0.048762636,9600,4865,19453
45.638,-0.8810662,1.364695,9.44752,-0.12723583,-0.15801226,0.02158346,7808,3841,16893
45.751,-0.25378536,1.30484,9.91439,-0.16320826,-0.119641656,0.012790199,6784,3329,16125
45.867,-0.90500824,1.3958196,9.935937,-0.20877334,-0.03250842,0.00706125536,4992,3073,15613
45.983,-0.9576807,1.4077906,10.010158,-0.20757426,-0.0013323124,0.007860643,3200,3585,16381
46.105,-0.50517652,1.0462662,10.156203,-0.237951,-0.12150689,0.013056661,896,4097,15869
46.221,-0.7781156,1.091756,10.093954,-0.24581162,-0.042633996,0.02691271,128,4353,16125
46.335,-0.5434838,1.0079589,10.3453452,-0.37331392,-0.1565467,0.10964931,-640,5376,17405
46.452,-0.1340753,0.557849,9.44752,-0.37424656,-0.09752527,0.09965697,-1408,7936,19197
46.564,-0.4261679,0.29688102,8.935161,-0.46471056,-0.16320826,-0.060353752,-3712,9472,19965
46.685,-0.90979668,0.30406362,9.935937,-0.39609648,-0.12030781,0.09699234,-5248,12288,20221
46.800,-1.4149732,0.260968,9.574412,-0.3988943,-0.17426646,0.26886064,-6016,15104,22525
46.914,-0.19632454,-0.24420858,9.916783,-0.37304748,0.015721286,0.1799954,-7296,18432,23805
47.029,-0.7661445,-0.29448682,9.768343,-0.34386984,0.028911179,0.10112251,-7296,20992,24829
47.146,-0.368707068,-0.6919243,9.9790328,-0.2311562,0.03330781,0.09645942,-8320,24832,25597
47.261,-0.79966332,-0.6607997,8.880095,-0.36438744,-0.024248086,0.07314395,-9344,27648,26877
47.382,-1.6400281,-0.7517793,9.677363,-0.33161256,0.034773352,0.06967994,-8832,29952,26877
47.496,-1.0965444,-1.1492168,9.749189,-0.417280268,0.051160796,-0.00053292496,-9856,-31744,27133
47.613,-1.6927006,-1.1085154,9.950302,-0.290977,0.09232925,0.070479332,-8832,-29184,27133
47.727,-1.3239936,-1.4628572,9.698911,-0.31895556,0.110448696,0.058621744,-9344,-26880,27389
47.844,-2.207454,-1.3192052,9.821015,-0.236218992,0.12417152,0.08806585,-9344,-24576,27901
47.959,-1.7286136,-1.6352397,10.01734,-0.22382848,0.15188362,0.048629404,-9344,-22016,30205
48.080,-1.6400281,-1.7238252,9.859323,-0.194251152,0.05795559,-0.0065283304,-8320,-20736,29437
48.196,-2.2816742,-1.42455,9.878476,-0.19838132,0.025047474,-0.029444104,-7552,-20224,30973
48.311,-2.0015526,-1.6879122,9.8042552,-0.185990816,-0.07407656,-0.04623124,-4992,-18432,32509
48.427,-2.2290018,-1.6017209,9.935937,-0.064084224,-0.03237519,-0.019584992,-1920,-16896,32765
48.542,-1.958457,-1.7070658,9.840169,-0.07114548,-0.053558956,0.026513018,896,-16127,-29955
48.663,-2.1499932,-1.6041151,9.76116,0.0025313936,-0.07261103,-0.0067947932,3200,-16127,-27395
48.777,-1.9895816,-1.3718776,9.078813,-0.06874732,-0.08313629,-0.03650536,7040,-16127,-24835
48.890,-2.3582888,-1.1013328,9.617508,-0.06208576,-0.11124808,-0.05062787,10112,-18175,-20227
49.004,-2.1643584,-0.9911995,9.631873,0.09166309,-0.25180704,-0.1168438,15232,-19455,-15363
49.117,-1.78368032,-0.92176768,10.235212,0.03424043,0.0047963244,-0.017053598,21120,-23295,-9987
49.240,-1.9297266,-0.61770404,9.679757,0.08833231,-0.0912634,-0.12390505,26496,-26367,-771
49.354,-2.0685902,-0.39264908,9.952697,-0.006661562,-0.04396631,-0.14362328,29824,-31231,4349
49.469,-1.7549498,-0.24899698,9.598354,0.036372124,-0.05609035,-0.09219602,31872,28929,10493
49.584,-1.6352397,0.009576807,9.947908,0.06874732,-0.211704452,-0.059021436,31616,23809,18173
49.705,-1.685518,0.08140286,10.316615,-0.04330015,-0.047563552,-0.07927258,29312,18177,27133
49.819,-1.78368032,0.2825158,10.196905,0.06581623,-0.084868308,-0.121773352,25728,13313,-31491
49.943,-2.3558946,0.47884036,9.722853,0.0699464,-0.086733532,-0.21210414,27776,7937,-32515
50.057,-1.9249382,0.6440403,10.06283,0.06235222,-0.10258805,-0.17386676,31360,2049,26109
50.172,-2.0374656,1.0366893,9.569624,0.041434916,-0.07714089,-0.11098162,-31104,-3071,18172
50.287,-1.9991584,1.079785,9.607931,-0.06808116,-0.04743032,-0.13789433,-29568,-6399,5628
50.401,-1.7597382,1.1827357,10.086772,0.04569832,-0.043566616,-0.16440736,-30592,-9471,-8708
50.517,-1.80522816,1.4173674,9.406818,-0.018918836,-0.06395099,-0.14309035,-30592,-13823,-21764
50.640,-1.8459295,1.3838486,10.110714,-0.01718683,-0.08033844,-0.15867841,-32640,-16895,-31748
50.757,-1.4580688,1.5059528,9.519346,-0.122839208,-0.12337213,-0.15241654,29312,-18687,24828
50.874,-1.7310078,1.7142484,10.172963,-0.1672052,-0.04183461,-0.1356294,23680,-18687,18684
50.988,-1.5059528,1.7669208,9.85214,-0.11804287,-0.11830934,-0.044632464,17792,-18431,15612
51.104,-1.6759412,1.6639702,10.287885,-0.1530827,-0.07860643,-0.058488516,14720,-18175,14076
51.226,-1.3623008,1.6711528,9.677363,-0.131366,-0.14309035,0.0031975498,10112,-15359,12796
51.341,-1.3192052,1.6687586,9.425972,-0.16387442,-0.211171508,-0.00706125536,7040,-14591,13052
51.459,-1.2138603,1.6256629,9.737218,-0.208107184,-0.27832004,0.004929556,5504,-15103,10236
51.576,-0.533907,1.4437036,9.485827,-0.324951,-0.19052068,0.028911179,3200,-14335,9468
51.691,-1.0342951,1.5251064,10.354922,-0.25487136,-0.20943952,-0.016920368,896,-12799,9980
51.807,-0.5674258,1.2856862,9.540894,-0.349732,-0.220897392,-0.022782542,-384,-12288,10492
51.927,-0.8499416,1.2090719,9.457097,-0.34853292,-0.14215774,-0.015854517,-2432,-11776,10748
52.042,-0.8331822,1.0319009,10.0508584,-0.33547628,-0.10085605,0.032108728,-4224,-10496,12028
52.159,-0.7733272,0.878672,9.830592,-0.3598576,-0.07833997,-0.016920368,-5504,-9472,13052
52.271,-0.05267244,0.40940848,10.240001,-0.45525112,-0.048895864,-0.038770292,-6272,-7680,14076
52.387,-0.49799396,0.2657564,10.058042,-0.4000934,-0.06235222,-0.028911179,-7040,-5632,15612
52.509,-0.6464345,0.035913024,9.696517,-0.43060336,-0.028511486,-0.046497704,-7552,-2048,16636
52.626,-0.533907,-0.25857376,9.923966,-0.44712404,-0.02384839,-0.023182238,-8320,0,18429
52.740,-0.47884036,-0.6464345,10.06283,-0.41261716,-0.027045942,-0.01612098,-8320,2304,18941
52.855,-0.49320556,-0.94092125,10.445902,-0.42500764,-0.008127105,-0.031842264,-8576,4864,20221
52.973,-0.533907,-1.1324574,10.13705,-0.37318072,-0.08233691,-0.064217452,-7808,6656,19453
53.087,-0.4261679,-1.364695,9.849746,-0.3898346,-0.0369050536,-0.0062618684,-6016,8960,19965
53.207,-0.6607997,-1.3239936,9.232041,-0.35173048,0.031709034,-0.034640124,-6016,11008,19709
53.322,-0.6919243,-1.7310078,10.216059,-0.37264776,0.053159268,-0.0031975498,-4224,13056,20221
53.439,-1.1659763,-1.6591818,9.938332,-0.30856356,0.07167841,0.04623124,-1920,13824,19965
53.554,-0.5626374,-2.2098482,9.916783,-0.24487902,0.08047167,0.08047167,-896,15872,20733
53.668,-0.80924016,-2.1763294,9.483433,-0.2869801,0.047963248,0.008127105,1408,17409,20477
53.788,-0.816422768,-2.3199814,9.909601,-0.1637412,0.08526799,-0.019318528,2944,18945,22269
53.904,-0.91458504,-2.087744,9.452309,-0.21143798,-0.10485299,-0.071545176,5248,18177,21501
54.019,-0.90021984,-2.267309,9.562442,-0.24381316,0.031709034,-0.056223584,7296,17409,22781
54.134,-1.1875241,-2.2888568,9.232041,-0.213569668,0.020784072,0.015721286,7552,16641,26109
54.251,-0.92895024,-2.2936452,9.351752,-0.1854579,0.016787136,0.011058193,9344,16129,28925
54.366,-1.2282255,-2.3511062,9.911995,-0.172534452,0.05609035,0.05808882,11648,14081,30973
54.488,-1.4915876,-2.327164,9.564836,-0.14015926,0.03996937,0.015321592,13696,12289,-29955
54.602,-1.6567876,-2.1811178,9.555259,-0.100189896,0.00706125536,0.03450689,15488,10753,-26627
54.720,-1.733402,-2.0925324,9.7563716,-0.00039969372,0.057422664,0.04303369,17792,9473,-19715
54.835,-1.448492,-1.9536686,9.801862,-0.032108728,0.008526799,-0.022915774,18816,8705,-13571
54.950,-2.078167,-1.5251064,9.969456,0.07873966,-0.0723445636,0.044898928,19072,6657,-4611
55.070,-2.1667526,-1.0271125,9.715671,0.08113782,-0.023981624,0.041301684,21120,5377,2813
55.186,-1.817199,-1.0845734,9.696517,0.049961712,0.04330015,0.071545176,21888,3073,9213
55.302,-1.6160861,-0.7685388,10.172963,0.062218988,0.10498622,0.06794793,21632,1025,14589
55.418,-1.85071792,-0.6560113,10.000581,-0.14229096,-0.12910107,0.024914242,21632,769,21757
55.535,-1.685518,-0.373495468,10.134656,-0.04303369,0.009059724,0.011058193,18560,-511,30204
55.650,-1.6017209,-0.29209262,9.715671,-0.057422664,-0.03224196,0.060886676,16000,-1791,-29444
55.771,-1.84353532,-0.177170932,9.7803132,-0.114445632,-0.029843798,0.038770292,14976,-3071,-25604
55.890,-1.910573,0.023942016,10.390836,-0.08713323,-0.037837672,0.040369064,14720,-5119,-26884
56.005,-1.78128616,0.093373864,9.816227,-0.056490044,-0.045565084,0.004529862,18560,-9983,-31492
56.121,-1.6160861,0.25857376,10.141838,-0.06288514,-0.117776416,0.00359724336,21120,-14847,25596
56.239,-1.673547,0.49320556,10.4171716,-0.0635513,-0.12017458,0.023049004,24192,-17919,14332
56.361,-1.7262194,0.47165772,9.988609,-0.03344104,-0.10711791,0.07007963,29056,-21503,-2820
56.476,-1.2186487,0.60333884,10.024523,-0.047563552,-0.15201685,0.02571363,27776,-21503,-19716
56.593,-1.5514428,0.92416184,10.266336,-0.06368453,-0.102055128,0.028378254,25216,-20991,-31492
56.710,-1.3599066,0.9672575,9.868899,-0.10964931,-0.12137366,0.020917306,21376,-19455,24316
56.826,-1.1228806,0.9959879,10.04607,-0.1108484,-0.116577336,0.04969525,17024,-16383,18684
56.941,-0.90021984,1.1420342,10.01734,-0.079672284,-0.172267984,-0.02025115,13440,-15359,16380
57.063,-0.92416184,1.2856862,9.730036,-0.084868308,-0.176531384,-0.03344104,11136,-14591,12796
57.179,-0.58418524,1.2497733,10.031705,-0.07833997,-0.16653904,0.002264931,9856,-15359,9212
57.295,-0.7230489,1.2785036,9.933543,-0.14602144,-0.190254216,0.042367532,7808,-14591,8444
57.411,-0.5315128,1.2808978,9.727641,-0.13256508,-0.13869372,-0.007860643,6016,-14591,7676
57.525,-0.62488664,1.2904748,9.7563716,-0.169736616,-0.12190658,0.011324655,4224,-14079,7164
57.648,-0.24420858,1.1803415,9.950302,-0.26526338,-0.10192189,0.04396631,2688,-13823,6908
57.764,-0.361524436,1.2138603,10.010158,-0.23062328,-0.077407348,0.03650536,1408,-13055,7932
57.881,-0.11252748,1.0702082,10.048465,-0.32601684,-0.079672284,0.039169984,-128,-13056,8444
57.998,-0.1340753,0.91219084,9.775525,-0.27085912,-0.094727408,0.00706125536,-1152,-11776,9468
58.114,-0.01436521,0.7062895,9.866506,-0.36425424,-0.029444104,-0.025047474,-2688,-10496,11516
58.229,-0.46686932,0.6584055,9.933543,-0.382773336,-0.06608269,-0.022116386,-4224,-9472,13052
58.350,-0.22266076,0.30406362,9.988609,-0.38783616,-0.061952524,0.02598009,-4480,-7680,13052
58.465,-0.06943185,0.14844051,9.916783,-0.42793872,-0.03130934,-0.0010658499,-4992,-5376,15356
58.580,-0.050278236,-0.035913024,10.237606,-0.37371364,-0.040102604,0.0053292492,-5504,-3328,15612
58.697,-0.10773908,-0.25617956,10.086772,-0.26899384,-0.015721286,0.02264931,-6016,-1792,17404
58.814,-0.32321724,-0.2705448,9.830592,-0.38397244,-0.06808116,0.0065283304,-6016,256,19197
58.934,-0.25617956,-0.61770404,9.988609,-0.27792036,-0.018652374,0.06608269,-5760,2304,18685
59.050,-0.079008652,-0.7206547,9.864111,-0.353995384,-0.038237368,0.056356816,-5504,4352,19453
59.166,0.16519992,-1.0271125,9.768343,-0.35466156,-0.051560488,0.044765696,-5248,6400,18173
59.282,0.15562311,-1.1683705,9.627085,-0.32175344,-0.018385912,0.0075941808,-4480,8704,18941
59.399,-0.184353532,-1.271321,9.564836,-0.3625222,-0.00013323124,0.027445634,-3200,10496,17661
59.514,-0.30166942,-1.5442602,10.134656,-0.24887594,0.050894336,0.04276723,-1920,12800,19197
59.636,-0.356736068,-1.5753847,9.976639,-0.24927566,0.07594181,0.05569066,-384,14080,17405
59.752,-0.4165911,-1.78128616,10.077195,-0.23515314,0.0105252684,0.043566616,640,15105,18685
59.870,-0.4309563,-1.82438168,9.969456,-0.21969832,0.074609496,0.022382848,2432,15361,17149
59.985,-0.7134721,-1.7262194,10.216059,-0.1556141,0.048362936,0.017852986,4224,16385,18429
60.101,-0.79487496,-1.6400281,9.679757,-0.1338974,0.06674885,-0.005595712,3712,16385,18685
60.221,-0.6488287,-1.7262194,9.935937,-0.180794784,0.04769678,-0.011457887,7040,15105,19965
60.337,-1.1420342,-1.673547,10.022128,-0.1803951,0.002797856,0.0018652374,7552,15105,20477
60.452,-1.1300632,-1.6998832,9.938332,-0.18758958,0.0247810116,0.007860643,10368,14081,22013
60.568,-1.2976574,-1.7764976,10.208876,-0.15241654,-0.00013323124,0.0247810116,11392,12545,23805
60.686,-1.2976574,-1.7286136,9.701305,-0.15947778,0.02997703,0.0214502284,13184,10753,24061
60.803,-1.0486604,-1.6376339,9.385271,-0.14295712,0.06208576,-0.0021316998,15488,8961,25085
60.925,-1.3982138,-1.4389152,9.768343,-0.12124042,0.07074579,0.040369064,18816,5633,28413
61.040,-1.3503298,-1.4413094,9.531317,-0.07647473,0.1334977,0.04076876,22912,2817,31229
61.154,-1.4030022,-1.3958196,10.04607,-0.04090199,0.072078092,0.015987748,25984,-767,-28932
61.270,-1.541866,-1.1563994,10.115502,-0.080604892,-0.072477792,-0.0063950996,27776,-4607,-23812
61.386,-1.6950948,-0.9935937,10.405201,-0.019318528,-0.11750995,0.0277121,-32640,-8191,-19460
61.507,-1.4987702,-1.0127473,10.218452,-0.03450689,-0.0518269536,-0.004929556,-30080,-10239,-16388
61.623,-1.661576,-0.6847417,9.622296,0.0037304748,-0.024381318,0.01398928,-30336,-12031,-13572
61.736,-1.6017209,-0.5626374,9.500193,-0.04569832,0.023981624,0.01625421,-30080,-13823,-10500
61.850,-1.7645266,-0.5386954,10.30225,-0.016387442,-0.04090199,0.0443660032,-25984,-15103,-5124
61.966,-1.721431,-0.354341868,10.292673,-0.08300307,-0.034640124,0.026379786,-26240,-17919,-1796
62.082,-1.6352397,-0.217872352,10.067618,-0.049029092,-0.040235836,0.015454824,-26496,-18431,3324
62.206,-1.3838486,-0.191536132,10.170568,-0.010924961,-0.061686064,0.010924961,-26240,-20479,9724
62.324,-1.5514428,0.10055647,10.160992,-0.032908116,-0.046897396,-0.012257273,-27520,-20991,9980
62.441,-1.5107412,0.373495468,9.421184,-0.03703828,0.034906584,0.0050627872,-28288,-23551,8188
62.563,-1.496376,0.50517652,9.603143,-0.043833076,-0.038770292,-0.004396631,-31616,-25855,4348
62.677,-1.4772224,0.60812724,10.304645,-0.042633996,-0.06288514,0.025580398,32384,-27391,-772
62.799,-1.5179238,0.792480736,10.132261,-0.036771824,-0.07527565,0.011591119,30592,-28927,-10244
62.916,-1.5921441,0.9888053,10.2495776,-0.077540584,-0.09419449,0.038637056,28032,-27903,-23812
63.033,-1.460463,1.0175357,9.883265,-0.08846554,-0.110448696,0.039303212,24448,-26111,-32004
63.149,-1.091756,1.0271125,9.928755,-0.12816845,-0.10058958,0.031975496,20352,-24319,26108
63.265,-1.2737152,1.283292,9.488221,-0.2503415,-0.008127105,0.01505513,16000,-21759,20988
63.384,-1.2258313,1.1300632,10.292673,-0.1842588,-0.0014655436,-0.0029310872,13696,-19199,17148
63.501,-1.0007763,1.1803415,9.885659,-0.13189892,-0.15521438,-0.02917764,11136,-18175,14076
63.617,-1.1348516,1.2856862,10.208876,-0.13069984,-0.15028484,0.0058621744,9088,-17151,12028
63.733,-0.806845936,1.352724,9.799467,-0.23022358,-0.12723583,0.065150076,7040,-15871,11772
63.850,-0.78050976,1.328782,9.919178,-0.18758958,-0.090863704,0.03943645,6016,-14591,9724
63.964,-0.4357447,1.0151415,9.76116,-0.2831164,0.008393568,-0.013456355,3968,-13823,8956
64.084,-0.5363012,1.0199299,10.266336,-0.25380552,-0.17026952,0.019318528,1920,-12799,8444
64.200,-0.34476504,0.9840169,9.528923,-0.32122056,-0.0742098,0.021716694,384,-11263,9980
64.314,-0.5722142,0.92655608,9.888053,-0.29817152,-0.064217452,0.0405023,-1152,-9728,9212
64.427,-0.3878607,0.78290397,9.885659,-0.42607352,-0.0422343,0.021183766,-1664,-9472,10236
64.542,-0.6536171,0.7062895,9.928755,-0.35239664,-0.11750995,-0.0063950996,-3456,-7168,12284
64.657,-0.92895024,0.366312868,10.342952,-0.39010108,0.0057289432,0.03757121,-5248,-4864,14332
64.779,-0.375889668,0.19871874,9.715671,-0.34347016,-0.008926493,0.029843798,-6016,-2816,14844
64.896,-0.1604115,0.019153614,9.880871,-0.36092344,0.074476264,0.09885758,-6272,-1280,16892
65.011,-0.2801216,-0.378283868,10.117896,-0.371981632,-0.089797852,-0.017453292,-6784,1536,17661
65.128,-0.545878,-0.4285621,9.770737,-0.29417458,-0.06688208,0.029843798,-7808,3072,17917
65.241,-0.320823,-0.7302315,9.856929,-0.2809847,-0.03996937,0.029444104,-7552,5376,18173
65.360,-0.4189853,-0.7015011,9.861717,-0.32561712,-0.0058621744,0.043833076,-7552,6656,19197
65.475,-0.31603462,-0.9624691,9.957485,-0.28644716,-0.046497704,-0.012656967,-7552,8704,18173
65.591,-0.45010992,-1.1851299,10.228029,-0.28511484,-0.017453292,0.010924961,-7040,10240,18941
65.708,-0.7038953,-1.1540052,9.694122,-0.30469984,0.027578866,0.015721286,-5760,11264,18941
65.823,-0.49799396,-1.292869,9.883265,-0.3074977,-0.0061286368,0.016653904,-4992,12800,19197
65.938,-0.641646,-1.292869,9.507375,-0.25393876,0.020917306,0.02904441,-3712,13824,18429
66.057,-0.825999536,-1.4915876,9.763555,-0.31042876,0.07700766,0.0046630936,-2432,15360,18429
66.173,-0.79487496,-1.5729905,9.895236,-0.25793568,0.04942879,0.03144257,-896,16384,18173
66.287,-0.7781156,-1.6998832,9.634268,-0.21730014,0.047963248,0.014388974,1920,16641,18173
66.402,-0.9888053,-1.7381904,9.9550904,-0.1941179,0.03557274,0.013722817,3968,16385,18173
66.517,-0.9648633,-1.8267759,9.892841,-0.16347472,0.0303767232,0.02784533,3968,17153,19709
66.640,-1.2234371,-1.7429788,10.065224,-0.12297244,-0.020784072,-0.014122511,7040,16129,21245
66.759,-0.94092125,-1.6352397,9.959879,-0.06288514,-0.0037304748,0.011324655,8064,13569,22269
66.876,-1.3120226,-1.460463,9.617508,-0.111514544,0.01398928,0.017986218,10624,11265,24317
66.992,-1.4030022,-1.3862428,9.603143,-0.12017458,0.02691271,-0.015454824,13184,9217,24061
67.107,-1.2378023,-1.4652514,9.595961,-0.15388207,0.03530628,-0.00013323124,16000,5121,27645
67.223,-1.661576,-1.4389152,9.981427,-0.12790198,0.0034640124,-0.010258805,18048,2817,30973
67.344,-1.3670892,-1.3934254,10.352529,-0.09579326,-0.010125575,0.0010658499,22656,1,-28931
67.461,-1.79325716,-1.3455414,10.168175,-0.04516539,-0.034906584,0.0031975498,26240,-3327,-23300
67.579,-2.0829554,-0.8810662,10.163386,-0.026113322,-0.02371516,0.020650842,28800,-4351,-15364
67.694,-1.86508308,-0.94331544,10.18254,-0.02917764,0.0046630936,-0.021316998,32640,-7679,-3588
67.810,-1.7046716,-0.878672,10.18254,0.02264931,-0.093928024,-0.0053292492,32640,-7167,10236
67.930,-2.1523874,-0.6488287,10.268731,0.0233154668,0.0029310872,-0.009059724,28800,-7423,25852
68.047,-2.1260512,-0.380678036,9.765948,0.06874732,-0.026379786,-0.01398928,21888,-5887,-27140
68.162,-1.88663084,-0.090979668,9.864111,-0.012656967,-0.051294024,0.032641652,14976,-4607,-18180
68.279,-1.84114116,-0.007182605,10.295067,-0.15228331,-0.0503614036,0.014788668,11136,-5375,-13572
68.398,-1.78368032,0.08140286,9.868899,-0.13962634,-0.044632464,-0.0031975498,10624,-7935,-15620
68.514,-1.84114116,0.2633622,9.634268,-0.15228331,-0.04090199,0.02025115,12416,-11263,-16388
68.634,-1.9033904,0.30645782,9.861717,-0.117643184,-0.08899847,0.011724349,14208,-14335,-20996
68.751,-1.9033904,0.34237084,10.606314,-0.108316992,-0.10898315,0.056756508,19328,-18687,-29700
68.869,-1.81480492,0.48602296,9.694122,-0.124970904,-0.10671823,0.04969525,24448,-23295,19452
68.987,-1.7070658,0.5482722,9.82341,-0.08233691,-0.13229862,0.05609035,29824,-24575,-4
69.101,-1.6041151,0.641646,9.900024,-0.08846554,-0.12297244,0.033174578,30592,-24319,-19204
69.222,-1.4077906,0.7015011,9.643845,-0.10218836,-0.13616232,0.03224196,27008,-22783,32764
69.337,-1.3862428,0.6751649,9.617508,-0.13056661,-0.10365391,0.042500768,21888,-19967,23292
69.452,-1.3838486,0.842759,10.0029748,-0.11111485,-0.1466876,0.017053598,16768,-17151,17916
69.568,-1.1324574,0.9504981,10.263943,-0.18519142,-0.13256508,0.006928025,12416,-14591,14076
69.684,-1.0151415,1.0175357,9.9790328,-0.1484196,-0.18665696,0.041568144,10112,-13567,12540
69.801,-0.936132864,0.9864111,10.103531,-0.15388207,-0.185724352,0.031575808,8320,-11775,12284
69.925,-0.93852708,1.0821792,9.923966,-0.15481469,-0.18132772,0.029444104,7552,-11775,9724
70.041,-0.7302315,1.103727,9.536105,-0.14815312,-0.1573461,0.0233154668,5760,-11263,9468
70.156,-0.34955344,0.91937348,9.586384,-0.172534452,-0.052626336,0.030243492,3968,-11519,7932
70.273,-0.39025488,0.8714894,9.9790328,-0.29310872,0.043566616,0.010924961,1920,-11263,7420
70.389,-0.4333505,1.0295067,10.067618,-0.18159418,-0.0503614036,0.036238896,1152,-11007,9468
70.512,-0.22505496,0.7469909,10.412383,-0.22929096,-0.090863704,0.009992342,640,-10495,8700
70.628,-0.31603462,0.9911995,9.718064,-0.29643952,-0.08739969,0.03530628,-640,-9472,9212
70.742,-0.373495468,0.7302315,9.974244,-0.29603982,0.04516539,0.017320062,-1152,-7680,9212
70.857,-0.093373864,0.581791,9.619903,-0.32868148,-0.041568144,0.028245022,-1920,-7424,12284
70.971,-0.30885202,0.39743748,10.15381,-0.34053904,-0.061419604,0.007860643,-2688,-5888,13052
71.086,-0.22984336,0.10773908,10.405201,-0.32055438,-0.043433388,0.024914242,-3200,-4352,13820
71.211,-0.28491,-0.0047884032,10.101137,-0.33547628,-0.033174578,0.017852986,-3456,-1792,15100
71.327,-0.19393034,-0.16280572,9.931149,-0.42034456,-0.035839204,0.0037304748,-5504,-256,16124
71.443,-0.40222588,-0.3184288,10.014946,-0.32761562,-0.058621744,0.028644716,-5760,1536,15869
71.559,0.02873042,-0.62967504,10.192117,-0.3801087,-0.06315161,-0.00053292496,-5248,3584,17661
71.675,-0.21068976,-0.8283938,10.412383,-0.3442695,-0.09379479,0.0010658499,-4992,5632,17405
71.795,-0.10055647,-0.9744401,9.744401,-0.30789742,-0.0233154668,0.019318528,-4992,7168,16893
71.911,-0.17477672,-1.1611878,9.952697,-0.338007636,0.003330781,-0.011191424,-4736,9216,15869
72.027,-0.33997664,-1.1899183,10.012551,-0.3112282,-0.0429004568,0.015454824,-3200,10496,16381
72.144,-0.49081136,-1.3335704,10.177752,-0.218499232,0.018385912,0.02691271,-2432,11264,16637
72.261,-0.33758244,-1.4293384,9.80665,-0.231022968,0.06661562,0.02571363,-1408,12544,15869
72.375,-0.5386954,-1.5275006,10.070012,-0.21969832,0.047030624,0.047830016,640,12545,16125
72.496,-0.49799396,-1.5514428,9.691729,-0.20437672,0.04276723,0.02571363,1920,12545,15613
72.611,-0.6584055,-1.661576,10.177752,-0.21610108,0.029843798,0.009992342,2944,13569,16893
72.726,-0.7110779,-1.4820108,9.662998,-0.18798928,0.0277121,0.014788668,3968,13313,18173
72.839,-1.0199299,-1.6160861,9.78989,-0.2495421,0.08606738,0.019451762,5248,13825,18941
72.954,-0.92895024,-1.7501614,9.818622,-0.2443461,0.05835528,0.0075941808,6528,12801,20221
73.074,-1.1228806,-1.721431,9.579201,-0.2367519,0.04423277,-0.010658499,7552,12545,23549
73.188,-1.1731589,-1.85311216,9.809045,-0.2375513,0.029843798,-0.03344104,8576,12033,24317
73.304,-1.2521675,-1.7381904,9.598354,-0.233154668,0.0443660032,-0.03130934,9600,10753,26877
73.421,-1.2497733,-1.9488802,9.947908,-0.14908576,-0.11671056,0.0025313936,10624,10241,29437
73.538,-1.4053964,-1.89860184,9.952697,-0.115644716,-0.0993905,-0.040235836,13184,8449,31997
73.655,-1.79565132,-1.6089035,9.739613,-0.09312864,0.038770292,0.016387442,15232,6913,-28419
73.777,-1.4748282,-1.6496049,9.40203,-0.11790965,0.13043338,-0.02371516,16768,6145,-21763
73.893,-1.4460978,-1.553837,9.7563716,-0.12936753,0.059287901,-0.020917306,15232,6145,-14083
74.010,-1.5466544,-1.4508862,9.787497,-0.07780705,-0.008127105,-0.028111792,14208,6913,-6147
74.124,-1.6065093,-1.2856862,10.144233,-0.027312404,-0.0784732,-0.016787136,12160,9473,509
74.240,-1.9632454,-0.9959879,9.959879,-0.025313934,-0.110315464,-0.0075941808,9600,13825,8189
74.362,-1.82438168,-0.79008652,9.91439,-0.017852986,-0.010392036,0.03237519,6272,16897,12029
74.478,-1.3910312,-0.7110779,9.416395,0.041168456,-0.048629404,0.02038438,4736,17409,13565
74.593,-1.3814544,-0.45250412,9.916783,-0.07021286,-0.0023981622,-0.032774884,4480,15873,12541
74.708,-1.5155296,-0.189141932,9.895236,-0.07007963,-0.0006661562,0.0006661562,2944,15105,13053
74.824,-1.6831238,-0.10295067,10.213664,-0.07287749,-0.0547580432,0.02371516,1920,14081,12541
74.940,-1.82438168,0.12689268,10.070012,-0.124837672,-0.05382542,0.011324655,1408,9985,11517
75.064,-1.4676456,0.10055647,10.237606,-0.1373614,-0.07474272,0.036238896,3968,2561,8957
75.179,-1.84114116,0.23223756,10.474632,-0.08406891,-0.14868606,0.041701376,7808,-4863,1788
75.296,-1.5753847,0.260968,9.89763,-0.09246248,-0.07580858,0.036238896,10880,-12799,-7940
75.414,-1.6950948,0.40222588,9.904813,-0.10285452,-0.11417917,0.008526799,13440,-17919,-16388
75.530,-1.5514428,0.49081136,9.890448,-0.13975957,-0.064084224,-0.018652374,15232,-19455,-23812
75.652,-1.3670892,0.4429273,10.247183,-0.09845789,-0.102454824,0.0233154668,15744,-20223,-31236
75.770,-1.2114661,0.5602432,9.660604,-0.12470444,-0.11058193,0.0065283304,15232,-19967,27644
75.886,-1.151611,0.61530984,9.811439,-0.170003068,-0.10805054,-0.02251608,14976,-20991,23292
76.001,-1.0989386,0.6344634,9.82341,-0.17213476,-0.10058958,-0.027445634,13184,-19711,19964
76.116,-0.91697928,0.6488287,9.902418,-0.196382852,-0.0887320064,-0.027578866,11904,-18687,17660
76.233,-0.90021984,0.59376204,10.733206,-0.192785584,-0.16440736,-0.02797856,11392,-17407,14332
76.355,-0.93852708,0.7422025,10.223241,-0.12017458,-0.17919602,0.03344104,9856,-16639,12028
76.470,-0.9888053,0.7326257,10.09156,-0.17519908,-0.1160444,0.017852986,9344,-15359,10748
76.583,-0.59136784,0.7158663,10.204087,-0.13109954,-0.13962634,0.0065283304,8576,-14335,7932
76.700,-0.45010992,0.7350199,10.158598,-0.11830934,-0.12124042,-0.00706125536,7552,-14335,7676
76.817,-0.3184288,0.7206547,9.964667,-0.1846585,-0.1484196,0.0023981622,5504,-14335,5884
76.937,-0.58418524,0.8834604,9.844957,-0.14375651,-0.1462879,-0.006928025,4480,-14591,4092
77.051,-0.5410896,1.0295067,9.694122,-0.13123277,-0.14349004,0.022116386,3712,-14335,4348
77.167,-0.10773908,0.8762778,9.64145,-0.20224502,-0.09219602,0.045964776,1408,-15615,3068
77.282,-0.1340753,0.91458504,9.830592,-0.21303676,-0.10152221,0.018652374,-128,-15872,4092
77.398,-0.22266076,0.878672,9.940725,-0.15254978,0.072078092,0.04623124,-2176,-15360,5884
77.512,0.06943185,0.8379706,10.060435,-0.2660628,-0.08686677,0.00359724336,-4224,-15360,7164
77.633,0.217872352,0.7781156,10.704475,-0.31882236,-0.14162481,-0.05196018,-5760,-14592,8700
77.750,-0.088585464,0.60094464,10.295067,-0.312294,-0.14468913,-0.02797856,-7808,-14848,9724
77.865,-0.1412579,0.581791,9.765948,-0.18679022,-0.15175038,0.023049004,-8576,-13568,12796
77.979,0.29927522,0.34476504,9.746795,-0.3352098,-0.01718683,0.015588055,-9600,-12800,13308
78.094,0.39504328,0.15801731,9.01417,-0.38756968,0.059421132,0.11484533,-11136,-10240,16124
78.209,-0.038307228,-0.076614456,9.504981,-0.4636447,0.029710566,0.056356816,-12672,-6912,17404
78.330,0.62249244,-0.5386954,10.223241,-0.441928,-0.0013323124,0.032641652,-12416,-3584,20476
78.444,-0.32321724,-0.521936,9.718064,-0.4747029,-0.06448392,-0.014388974,-13184,-1536,20988
78.557,-0.33518824,-1.0749966,10.156203,-0.4034242,-0.0377044384,-0.03117611,-13184,2048,21245
78.673,-0.31124622,-1.115698,9.356541,-0.4735038,0.053026036,0.01079173,-11904,4096,21501
78.787,-0.33039984,-1.388637,9.306262,-0.39769524,0.06594946,0.05795559,-11392,6656,19965
78.906,-0.25139116,-1.89381336,10.110714,-0.4208775,0.034906584,0.01851914,-9600,9472,19197
79.022,-0.770933,-2.0159178,9.888053,-0.35745944,0.018385912,0.004929556,-7808,10752,17661
79.136,-0.641646,-2.2122424,9.627085,-0.2704594,0.0214502284,0.038104136,-5760,13312,16637
79.250,-0.51475332,-2.291251,9.78989,-0.29150996,0.069280248,0.060353752,-3712,13312,16637
79.364,-0.8379706,-2.2816742,9.476251,-0.26513016,0.0251807024,0.04503216,-1152,14848,16893
79.479,-1.0749966,-2.3295584,10.134656,-0.174,0.019052068,0.038370596,1920,14337,16893
79.600,-0.9935937,-2.3295584,9.502586,-0.14868606,-0.004529862,0.046364476,4480,14081,17661
79.715,-1.352724,-2.111686,9.478644,-0.07794027,0.020917306,0.07301072,6784,13569,18173
79.827,-1.2473791,-2.2457612,9.962274,-0.1061853,0.02371516,0.07301072,7808,13569,21245
79.940,-1.2880806,-2.1188686,9.528923,-0.12550382,0.08753293,0.06381777,8576,12545,22269
80.055,-1.3455414,-2.0470424,9.959879,-0.13802756,0.06448392,0.04276723,8576,11521,25085
80.175,-1.2162545,-2.0805612,10.19451,-0.045831548,-0.017852986,0.0233154668,9600,10241,25341
80.293,-1.1444284,-1.9560628,9.785102,-0.0466309336,-0.028777948,0.016920368,11392,7937,26621
80.409,-1.4437036,-1.80283384,9.653421,-0.09459418,-0.036372124,0.00706125536,13440,5377,28925
80.526,-1.2521675,-1.9393034,9.818622,-0.086733532,0.031709034,0.008393568,14208,1281,-31747
80.642,-1.7980456,-1.5849615,9.28232,-0.13469678,-0.0866003,-0.0251807024,14976,-511,-28420
80.759,-1.4341268,-1.5346834,9.464279,-0.030776416,0.11990812,0.02158346,16768,-3583,-23812
80.880,-1.2569559,-1.2569559,9.31105,-0.02571363,0.01079173,0.01398928,18048,-6143,-19204
80.993,-1.6160861,-1.0989386,9.797073,-0.07927258,0.019718224,0.023182238,19840,-7423,-12804
81.109,-1.5682021,-1.0845734,9.8042552,-0.08899847,-0.009059724,0.0177197552,19840,-7679,-4356
81.226,-1.982399,-0.6607997,9.562442,-0.152683,0.0151883616,-0.003330781,18816,-6655,6396
81.339,-1.6783354,-0.62488664,9.938332,-0.059287901,-0.026513018,-0.011058193,16256,-3327,15100
81.463,-1.6160861,-0.60333884,10.510546,-0.04076876,-0.09152986,-0.00079938744,11904,-1023,21244
81.578,-1.6927006,-0.4237737,10.146626,-0.017852986,-0.058754976,0.004396631,10368,-2559,23548
81.694,-1.9081788,-0.12689268,9.97185,-0.08127105,-0.0528928,0.00013323124,9856,-4351,23804
81.808,-1.82198752,0.021547814,9.725247,-0.14682082,-0.026779478,0.033973964,9600,-6399,23804
81.925,-1.7669208,0.05746084,9.835381,-0.14362328,-0.09366156,0.028245022,12672,-9471,19452
82.039,-2.0015526,0.21068976,10.33098,-0.06235222,-0.121773352,0.05835528,15232,-14079,6396
82.160,-1.508347,0.11731588,10.187328,-0.097258808,-0.120574264,0.041701376,19072,-18687,-6916
82.277,-1.5059528,0.366312868,9.696517,-0.0443660032,-0.10165544,0.017586524,18816,-20991,-20484
82.395,-1.5251064,0.46926352,10.072407,-0.05022818,-0.11298009,-0.007327718,18816,-23039,-29444
82.511,-1.2689268,0.6392518,9.627085,-0.06848086,-0.11497856,0.01385605,18048,-23039,27644
82.624,-1.271321,0.6512229,9.900024,-0.10911638,-0.11817611,-0.010258805,15744,-22271,22780
82.760,-1.4053964,0.89543144,9.694122,-0.13269831,-0.16360796,0.007194487,12416,-19199,18684
82.875,-1.1803415,0.89782568,9.907207,-0.13949311,-0.13483002,-0.016920368,10880,-18175,15356
82.991,-1.1133038,1.0319009,10.019734,-0.053558956,-0.12950076,-0.0177197552,10112,-18175,13052
83.109,-0.91219084,1.0295067,10.115502,-0.13802756,-0.15281622,0.039303212,8576,-16895,10492
83.226,-0.7781156,1.0247183,9.832987,-0.17066922,-0.197049,0.045831548,7040,-15615,8956
83.340,-0.63206924,1.0031705,9.581595,-0.22316232,-0.174,0.044099544,6528,-15359,6908
83.460,-0.7038953,1.0941502,9.900024,-0.23781776,-0.085001532,0.028378254,4736,-13567,6396
83.575,-0.4189853,0.6943185,9.725247,-0.29444104,0.008926493,0.0214502284,2432,-13311,7164
83.691,-0.16519992,0.830788,9.907207,-0.16134304,-0.0063950996,0.04196784,1152,-13311,6140
83.805,-0.4237737,0.8379706,9.763555,-0.25993412,-0.008526799,0.015588055,-1664,-12288,6908
83.919,-0.34476504,0.7445967,9.82341,-0.246877484,-0.05062787,0.0018652374,-2944,-12544,7932
84.035,-0.378283868,0.59376204,10.366894,-0.29270902,-0.09272895,0.016520674,-5248,-12544,8444
84.158,0.007182605,0.4429273,9.299079,-0.32828176,-0.051027564,0.01718683,-7296,-11264,10748
84.273,-0.019153614,0.2777274,9.40203,-0.32082084,0.0495620232,0.022249616,-7808,-9984,12028
84.388,-0.06943185,0.15562311,9.718064,-0.34253752,0.01718683,0.00706125536,-8832,-8704,13820
84.504,0.16519992,-0.05267244,10.09156,-0.3216202,-0.067281776,-0.0041301684,-8832,-6912,14844
84.618,-0.110133272,-0.1436521,9.861717,-0.3442695,-0.03663859,-0.012523737,-8832,-5632,14588
84.739,-0.2896984,-0.356736068,10.299856,-0.33734152,-0.061286368,0.012790199,-8832,-3840,15356
84.856,-0.34237084,-0.48841716,9.6845452,-0.25527108,-0.02571363,0.037171516,-9088,-2560,15356
84.971,-0.30406362,-0.6703765,9.56723,-0.27698772,0.02997703,0.024647778,-7296,-1280,16380
85.085,-0.39025488,-0.81402856,9.928755,-0.36611944,0.10058958,0.010125575,-6016,0,14589
85.202,-0.7302315,-0.811634368,9.674969,-0.29750536,0.08859877,0.03424043,-4480,1792,14077
85.317,-0.56982,-0.94331544,9.691729,-0.2617994,0.054624808,0.037171516,-1664,2816,13565
85.436,-0.8451532,-1.0031705,9.583989,-0.30549924,0.07794027,0.04276723,640,3585,13821
85.550,-1.0007763,-1.1755531,10.254366,-0.29537364,0.08753293,0.022382848,2944,3329,14589
85.666,-0.9816227,-1.3263878,10.201694,-0.29324198,0.06874732,0.024514546,3712,4865,16381
85.782,-0.92176768,-1.4053964,9.787497,-0.23128943,0.030243492,-0.032774884,4736,5121,17917
85.899,-1.4508862,-1.352724,10.172963,-0.22769218,-0.03237519,-0.03943645,6528,4865,20221
86.020,-1.4820108,-1.4197616,10.3692872,-0.24767688,0.08380245,0.002797856,7808,3585,22269
86.136,-1.6831238,-1.4676456,10.014946,-0.208640132,0.0607534436,0.0075941808,8576,2561,25597
86.255,-1.6352397,-1.484405,9.7803132,-0.20251148,0.08406891,0.019718224,9088,1537,28925
86.370,-1.7597382,-1.5059528,9.701305,-0.16627258,0.07367688,0.04769678,9344,1,-31747
86.484,-2.066196,-1.4556746,10.041282,-0.12350536,0.11750995,0.028777948,8320,-1023,-27396
86.600,-1.88423668,-1.4149732,10.225636,-0.114712104,-0.06954671,0.019052068,8576,-2047,-23044
86.723,-1.2425907,-1.4532804,10.053253,-0.199713632,0.0827366,0.02158346,9344,-2303,-17924
86.839,-2.0733786,-1.2593501,9.77792,-0.15494794,-0.022915774,0.062218988,9344,1025,-11523
86.955,-1.757344,-1.5011644,9.933543,-0.064217452,0.04503216,-0.0015987749,7296,4865,-3075
87.070,-1.8722657,-1.2545617,9.794679,-0.009725881,-0.00079938744,-0.021983154,4736,11521,4861
87.187,-1.6208745,-1.0965444,9.995792,-0.015987748,-0.02358193,-0.0026646248,384,18689,12029
87.308,-2.0973208,-0.7589619,10.702082,0.1334977,-0.17426646,0.03450689,-2176,22016,14845
87.423,-1.769315,-0.48123456,9.873688,0.14682082,-0.14988515,0.037970904,-1408,18688,13565
87.539,-1.1994951,-0.25857376,9.368511,0.0009326187,-0.022382848,0.03330781,384,15105,15869
87.654,-1.364695,-0.10295067,9.639056,0.009859112,-0.009459418,0.017586524,896,9217,13565
87.768,-1.4915876,0.033518824,9.933543,-0.075675348,-0.021183766,0.006928025,1152,3329,9469
87.883,-1.733402,0.33279404,10.144233,-0.068214392,-0.0061286368,-0.013189893,1920,-1023,13564
88.005,-1.6304513,0.46208092,9.878476,-0.1633415,-0.09592649,-0.0123905052,4480,-7423,7420
88.126,-1.661576,0.51475332,9.94312,-0.0997902,-0.13856049,0.015854517,7808,-13567,-260
88.239,-1.4556746,0.5363012,9.947908,-0.12164012,-0.09566003,-0.010258805,11648,-20735,-13828
88.354,-1.2904748,0.7110779,9.82341,-0.10991577,-0.12217305,-0.0054624808,12928,-24063,-25348
88.469,-1.7764976,0.91937348,9.775525,-0.11990812,-0.17040276,0.01851914,12416,-26111,31228
88.584,-1.1324574,0.7326257,10.3453452,-0.105252668,-0.18066156,0.003996937,11904,-27135,23548
88.708,-0.9624691,0.7278373,10.28549,-0.12337213,-0.1854579,-0.006928025,11904,-25855,16892
88.821,-0.8714894,0.8762778,9.892841,-0.13163246,-0.13629556,0.038637056,10624,-25343,13820
88.935,-0.62009824,0.931344464,10.110714,-0.20184532,-0.1590781,0.018918836,9344,-25599,11772
89.052,-0.90500824,0.9648633,10.103531,-0.14095865,-0.12310567,0.0021316998,9088,-25343,7676
89.169,-0.816422768,0.9864111,9.406818,-0.25353906,-0.1676049,0.025047474,7552,-24831,6652
89.291,-0.44771572,0.8451532,10.21127,-0.210505336,-0.17093568,0.018119448,4992,-23295,5884
89.407,-0.383072268,0.8810662,9.375694,-0.342804,-0.11671056,0.015721286,1920,-22783,4604
89.525,-0.33279404,0.50517652,9.888053,-0.2819173,-0.17026952,-0.011591119,-1664,-21504,7420
89.640,-0.04309563,0.3854665,9.411607,-0.4166141,-0.203710576,-0.057555896,-3968,-20736,8444
89.755,-0.29927522,0.31603462,9.921572,-0.30123584,-0.08793262,-0.038903524,-6016,-18944,11004
89.870,-0.1436521,0.2657564,9.665392,-0.38796936,-0.052093416,-0.023049004,-7040,-17152,11516
89.990,-0.12210429,-0.1412579,10.527305,-0.3326784,-0.051294024,-0.023182238,-8832,-14848,12540
90.105,-0.059855044,-0.28491,10.038888,-0.3493323,-0.059287901,-0.06368453,-9856,-13824,14076
90.220,0.08140286,-0.32321724,9.876082,-0.4200781,-0.05609035,-0.045431852,-9856,-12288,15868
90.334,-0.189141932,-0.51714752,9.97185,-0.3441363,-0.028644716,-0.008926493,-10368,-11520,17148
90.448,-0.11971009,-0.60812724,9.622296,-0.25953444,0.0009326187,0.027312404,-10624,-10496,16892
90.569,-0.12689268,-0.8475474,9.593566,-0.3309464,-0.011990812,-0.0067947932,-10112,-8960,18172
90.682,-0.30885202,-0.92176768,9.77792,-0.37291424,0.020650842,-0.0061286368,-8576,-7680,16636
90.797,-0.33279404,-1.1587936,10.168175,-0.33001378,-0.01292343,0.008793262,-7808,-6912,16380
90.913,-0.4333505,-1.3024458,10.2974616,-0.249675344,-0.011324655,-0.01398928,-5760,-5888,15612
91.031,-0.61770404,-1.3192052,10.129868,-0.247543652,0.0063950996,0.012124043,-4992,-6144,15612
91.154,-0.47884036,-1.484405,9.773131,-0.2673951,0.019584992,0.036238896,-2944,-5888,14588
91.268,-0.80445176,-1.460463,9.8042552,-0.229424208,0.033973964,0.01505513,-1920,-5632,15612
91.384,-0.7733272,-1.5610195,9.888053,-0.23022358,0.02158346,0.04183461,-384,-5632,15612
91.498,-0.7326257,-1.6232687,9.677363,-0.21183766,0.031575808,0.04916233,1920,-6143,16636
91.613,-0.89303732,-1.6783354,9.847352,-0.211171508,0.042633996,0.020117918,3712,-5631,17916
91.730,-0.91458504,-1.6352397,9.533711,-0.204909652,0.08646707,0.025447168,5760,-5119,19452
91.852,-0.92416184,-1.7597382,9.864111,-0.18226034,0.063018376,0.03650536,6528,-5631,20732
91.967,-1.2282255,-1.78607452,10.134656,-0.203177632,0.057422664,0.01825268,7808,-5631,21756
92.085,-1.1875241,-1.7645266,9.787497,-0.1718683,-0.00359724336,0.020784072,7808,-5375,23036
92.202,-1.0989386,-1.88902516,9.809045,-0.21210414,0.015321592,-0.023182238,8320,-4607,24572
92.320,-1.1013328,-1.7621324,10.022128,-0.15388207,-0.14881928,0.038370596,8832,-5119,26108
92.436,-1.340753,-1.82917008,9.653421,-0.23488668,-0.014522205,-0.012257273,10112,-4351,29692
92.558,-1.4197616,-1.7980456,9.598354,-0.17719754,0.061552832,0.0177197552,9856,-4095,32252
92.676,-1.6328455,-1.697489,9.107543,-0.26206586,-0.0019984686,-0.022915774,8064,-3327,-30468
92.792,-1.3455414,-1.8076223,9.52174,-0.16867076,0.06288514,0.04942879,8064,-2303,-28676
92.907,-1.448492,-1.7741034,9.746795,-0.12243951,0.045964776,-0.008660031,6784,-1535,-25860
93.022,-1.6783354,-1.5969325,10.036493,-0.15894488,0.0019984686,0.00013323124,5248,-1279,-23044
93.146,-1.80043968,-1.4915876,10.342952,-0.038104136,-0.0050627872,-0.008260337,3200,257,-21507
93.263,-1.6950948,-1.3982138,9.792285,-0.019052068,-0.022249616,-0.013456355,1920,3329,-19459
93.379,-2.1045034,-1.1659763,10.125079,0.0062618684,-0.0065283304,-0.032908116,896,7425,-18691
93.497,-1.6903064,-0.9552865,9.308656,-0.027179174,0.0011990811,-0.02025115,1408,10497,-19971
93.612,-1.4580688,-0.9935937,9.224859,-0.061952524,0.013056661,0.007860643,1664,11009,-19971
93.733,-1.7022774,-0.79966332,10.0029748,-0.03424043,-0.056223584,-0.014655436,1920,12033,-19459
93.850,-1.6041151,-0.21547816,10.21127,0.034640124,-0.03224196,0.035839204,1152,8961,-19715
93.967,-1.757344,-0.10773908,10.251971,-0.028911179,-0.09579326,0.053558956,3712,1537,-18691
94.085,-1.745373,0.2705448,10.170568,-0.041434916,-0.1676049,0.039702908,3968,-10239,-19460
94.199,-2.2266076,0.5315128,9.560047,-0.04769678,-0.16120979,0.06608269,6784,-18687,-23556
94.313,-1.4796166,0.45729252,9.830592,-0.011191424,-0.11910873,0.0866003,8064,-25087,-30468
94.433,-1.1468226,0.5243302,9.674969,-0.074476264,-0.092862176,0.06381777,8320,-27391,28156
94.548,-1.2282255,0.7206547,9.995792,-0.036105668,-0.13443032,0.034906584,8832,-28159,23804
94.663,-0.9720459,0.7110779,9.890448,-0.1530827,-0.12776876,0.0015987749,9600,-28927,18684
94.777,-1.0414777,0.81881692,9.665392,-0.16933692,-0.13163246,-0.0021316998,9344,-28671,16380
94.893,-1.1683705,0.9888053,9.981427,-0.16587288,-0.11111485,0.0014655436,8832,-29183,14076
95.009,-0.842759,1.0007763,9.809045,-0.13709494,-0.1569464,0.0062618684,8320,-28927,10748
95.128,-0.6727707,0.9911995,10.443508,-0.22609342,-0.14495559,0.00039969372,7808,-28927,7932
95.244,-0.56982,1.067814,10.103531,-0.1672052,-0.16280856,0.024381318,6528,-28927,6396
95.358,-0.49799396,0.90500824,9.667787,-0.2063752,-0.16320826,0.015321592,4224,-28159,5628
95.473,-0.29688102,1.0366893,10.4171716,-0.26219908,-0.18212712,0.025447168,2176,-27647,5116
95.591,-0.30885202,0.8571242,10.536881,-0.10685146,-0.14095865,-0.022915774,384,-26879,3836
95.714,0.05746084,0.7685388,9.902418,-0.26020062,-0.120840732,-0.016387442,-2688,-26624,4604
95.829,-0.007182605,0.7445967,10.730812,-0.3040337,-0.21956508,0.002797856,-4480,-25600,5884
95.943,-0.076614456,0.7038953,10.3214032,-0.24407964,0.0042633996,0.028644716,-5760,-23296,7164
96.060,0.23702596,0.51954176,9.986216,-0.28884532,-0.08220368,0.024248086,-6784,-22272,9724
96.175,0.29448682,0.31124622,9.902418,-0.33161256,-0.025047474,0.0277121,-6784,-19712,11260
96.290,0.521936,0.2657564,9.662998,-0.380508432,-0.009059724,0.040235836,-8576,-18176,12284
96.410,0.24181438,0.050278236,9.988609,-0.34053904,-0.070346092,0.022915774,-8320,-15616,13820
96.526,0.2801216,-0.24181438,9.902418,-0.31455898,-0.06261868,0.013456355,-9344,-13824,14588
96.641,0.023942016,-0.24660278,10.520123,-0.31029556,-0.058754976,0.01825268,-9088,-12800,15356
96.757,0.47165772,-0.62249244,9.718064,-0.31669064,-0.008793262,-0.013722817,-8832,-11008,15100
96.873,-0.009576807,-0.6823475,9.89763,-0.28871208,0.015854517,0.019318528,-9344,-8960,16380
96.993,-0.05267244,-0.79487496,9.378088,-0.4359326,0.049961712,0.049295556,-9088,-8704,17404
97.107,0.12928688,-1.055843,10.084377,-0.33028024,0.05169372,-0.009859112,-8320,-7424,16124
97.221,-0.22505496,-1.1851299,9.840169,-0.31455898,0.033174578,0.026646248,-7040,-7168,16380
97.337,0.016759412,-1.2880806,10.005369,-0.27871976,0.015854517,0.0042633996,-6528,-6400,17660
97.455,-0.15083471,-1.376666,9.65821,-0.26686218,-0.030909648,-0.015721286,-5760,-6400,16892
97.569,-0.06943185,-1.5370776,9.514558,-0.27498928,0.035705972,0.0046630936,-3200,-6656,16636
97.690,-0.5363012,-1.5442602,10.204087,-0.27818684,0.02571363,0.02384839,-2688,-7424,17148
97.805,-0.47405192,-1.7669208,10.34774,-0.23781776,0.020784072,0.029843798,-1408,-6656,18172
97.920,-0.5602432,-1.83156432,9.923966,-0.2534058,0.019718224,0.01718683,-384,-6912,17916
98.034,-0.830788,-1.7357962,9.495404,-0.2106386,0.042500768,-0.0037304748,1408,-6911,18684
98.147,-0.7206547,-1.83395852,10.113108,-0.178663084,0.059820828,0.03956968,2432,-7679,19452
98.270,-0.7302315,-1.9321208,10.19451,-0.1803951,-0.1309663,-0.0014655436,4224,-8191,19964
98.384,-0.78290397,-1.9177556,10.316615,-0.176531384,0.0053292492,0.03330781,6528,-9471,21500
98.503,-0.7757214,-2.0015526,9.947908,-0.11191424,-0.026113322,0.036372124,8064,-8191,23036
98.618,-0.92895024,-1.87465984,9.830592,-0.11617764,-0.024514546,0.031709034,8576,-8703,23548
98.735,-1.1947067,-1.7238252,9.742006,-0.1680046,0.02797856,0.05995406,8576,-7423,26108
98.848,-1.0893618,-1.84353532,9.385271,-0.13483002,0.007993874,0.038903524,8320,-6655,28412
98.970,-1.3910312,-1.81480492,9.718064,-0.20784072,0.08686677,0.00039969372,7808,-5631,30204
99.087,-1.3239936,-1.9033904,10.307038,-0.1637412,0.0495620232,0.011591119,7808,-4607,32764
99.204,-1.6112977,-1.685518,10.311827,-0.13123277,0.035039816,0.019052068,6528,-4607,-31236
99.321,-1.5107412,-1.79565132,10.041282,-0.18279328,0.013456355,0.00039969372,5760,-3327,-28420
99.439,-1.6950948,-1.6112977,9.744401,-0.16147626,0.05249311,0.01292343,5504,-2815,-25348
99.560,-1.7549498,-1.5993267,9.433155,-0.14055896,0.0,0.015454824,3968,-2815,-26116
99.675,-1.685518,-1.4030022,9.768343,-0.11937519,-0.014388974,0.010258805,4224,-1535,-24836
99.791,-1.6352397,-1.4030022,9.940725,-0.05808882,0.021983154,0.0050627872,3712,257,-22787
99.907,-1.7501614,-1.4293384,10.433931,-0.05582389,0.017053598,0.00053292496,2688,4353,-22019
100.024,-1.86987152,-1.1611878,9.634268,-0.02038438,-0.046764164,0.052226644,1920,7425,-20739
100.140,-2.087744,-0.792480736,9.397242,0.024914242,-0.0105252684,0.072078092,1920,9473,-19715
100.262,-1.5059528,-0.79487496,9.557653,-0.11311332,-0.011191424,0.038370596,2688,11521,-18947
100.378,-1.5849615,-0.5386954,9.715671,-0.044898928,-0.08606738,0.03530628,3200,11521,-18947
100.492,-1.6448165,-0.4237737,10.232818,0.03437366,-0.15854516,0.053159268,3712,9729,-17923
100.607,-1.8722657,-0.074220252,9.864111,-0.0429004568,-0.10125574,0.06381777,3712,4609,-17667
100.725,-2.0039468,0.10295067,10.081984,0.05609035,-0.1079173,0.062218988,4736,1025,-16643
100.847,-1.9321208,0.34955344,9.969456,-0.03956968,-0.08380245,0.094993868,5248,-5375,-17924
100.967,-1.283292,0.363918668,9.667787,-0.07194487,-0.06115314,0.04076876,5760,-12799,-20228
101.081,-1.5035586,0.5363012,10.189722,-0.08313629,-0.084735064,0.020650842,7040,-17151,-20228
101.197,-1.4389152,0.6703765,10.0269168,-0.046764164,-0.10058958,0.036771824,8064,-21503,-25092
101.314,-1.6160861,0.8882488,10.007763,-0.080604892,-0.09486064,0.06701531,8832,-25343,-30212
101.429,-1.2330139,0.8762778,9.983821,-0.065283308,-0.15041808,0.06101991,9088,-27903,29692
101.549,-1.2162545,1.0007763,10.04607,-0.10765084,-0.14828637,0.06235222,10112,-28671,22780
101.665,-0.7637503,0.8619126,9.627085,-0.15721286,-0.10738438,0.045565084,10624,-27647,18172
101.779,-0.825999536,1.1492168,9.809045,-0.15108423,-0.10445329,0.04716386,8832,-26623,14076
101.895,-0.5746084,1.0582372,9.737218,-0.16094334,-0.19864778,0.048362936,8832,-25343,10236
102.011,-0.59136784,1.2401965,9.797073,-0.14122512,-0.24621134,0.044499232,8320,-24831,8188
102.133,-0.220266544,1.0893618,9.689334,-0.20730782,-0.19798162,0.039836144,6272,-23551,5372
102.251,-0.2873042,0.9744401,9.859323,-0.214502284,-0.044765696,0.038770292,4480,-21503,3836
102.367,-0.181959332,1.151611,9.799467,-0.197581932,-0.10152221,0.024914242,2176,-20735,5116
102.484,-0.055066636,0.89543144,9.720459,-0.29817152,-0.10325421,0.048895864,-128,-18944,4604
102.600,-0.4261679,0.9576807,10.108319,-0.21530168,-0.005196018,0.06554977,-1152,-16384,7420
102.714,0.186747732,0.6536171,9.892841,-0.3377412,-0.10112251,0.06381777,-3456,-14592,9212
102.835,0.12210429,0.581791,9.627085,-0.26339816,-0.042500768,0.04090199,-4992,-13824,9980
102.949,0.48841716,0.33997664,9.648633,-0.3493323,-0.079672284,0.03330781,-5248,-12544,12796
103.063,0.2825158,0.16519992,10.127473,-0.37677796,-0.11138132,0.05369219,-7040,-9984,13564
103.178,0.31124622,0.02873042,10.419566,-0.37371364,-0.021716694,0.028378254,-7808,-7424,15868
103.295,0.14604631,-0.30406362,10.007763,-0.40662176,-0.04942879,-0.015987748,-8064,-5120,16892
103.417,-0.090979668,-0.45968672,9.689334,-0.346934136,0.0,-0.017986218,-8320,-3072,17148
103.532,0.23942018,-0.7302315,9.734824,-0.3685176,-0.015987748,0.0030643184,-8064,-1024,17148
103.646,-0.16759412,-0.8643068,9.856929,-0.37464624,-0.017586524,0.0214502284,-8320,512,17661
103.762,-0.356736068,-0.9935937,9.682152,-0.31522512,-0.006661562,0.040369064,-7552,2816,17149
103.878,-0.088585464,-1.3335704,10.278308,-0.3216202,0.0061286368,0.005595712,-6528,4608,16893
103.994,-0.29209262,-1.3934254,9.739613,-0.3330781,0.027578866,0.032641652,-5248,5888,15101
104.115,-0.40940848,-1.5298948,9.385271,-0.2596677,0.06981317,0.052226644,-3712,7424,15357
104.230,-0.22744916,-1.6328455,9.440337,-0.2896447,0.090996936,0.027312404,-2432,7680,16125
104.345,-0.7254431,-1.7645266,10.065224,-0.28951148,0.10272128,0.019185298,-384,9216,16637
104.461,-1.0247183,-1.79086284,9.947908,-0.2681945,0.11178101,0.033574272,1920,10753,17149
104.578,-1.0965444,-1.9895816,10.043676,-0.231022968,0.11018224,0.019584992,3712,11265,18429
104.702,-1.2473791,-1.9201498,10.089166,-0.15934457,0.14588821,-0.0042633996,5504,10241,22269
104.820,-1.3910312,-1.85790052,9.94312,-0.18958806,0.09059724,-0.02038438,6784,8193,23037
104.935,-1.2641385,-1.83635268,9.94312,-0.204110252,0.07913936,0.007194487,7808,6657,27389
105.052,-1.520318,-1.6519991,9.892841,-0.09406125,0.097258808,0.029710566,8320,4865,29693
105.167,-1.4077906,-1.6903064,9.832987,-0.12443797,0.045831548,0.003863706,8320,3073,31997
105.283,-1.5945383,-1.757344,10.371682,-0.08966462,-0.02691271,-0.007860643,9344,2049,-30467
105.403,-1.4197616,-1.6400281,9.44752,-0.09446095,-0.028644716,0.009059724,9088,1,-27907
105.517,-1.532289,-1.6112977,9.473856,-0.10218836,0.048629404,0.006928025,9344,-2559,-25092
105.632,-1.6017209,-1.3742718,9.490616,-0.04729709,0.056623276,-0.0050627872,9344,-3071,-19716
105.748,-1.5466544,-1.3192052,9.188946,-0.14482234,-0.09739203,0.010658499,8832,-2815,-14084
105.863,-1.5945383,-1.2306197,8.870518,-0.12550382,0.009592649,0.0010658499,7040,-1279,-9988
105.980,-1.520318,-1.091756,9.572019,-0.057822358,0.07181164,0.027045942,5504,3841,-4355
106.101,-1.3862428,-0.9600749,9.600749,-0.0105252684,-0.25953444,-0.019185298,4224,7937,-771
106.218,-1.4508862,-0.6560113,8.987833,-0.0042633996,0.03663859,0.03437366,6016,6913,253
106.333,-1.82198752,-0.39983168,9.28232,-0.04196784,-0.026646248,0.059287901,4992,9985,4093
106.449,-1.6639702,-0.32321724,9.524135,-0.051560488,0.050761104,0.052226644,3456,10497,7421
106.565,-1.80283384,-0.035913024,9.9790328,-0.010392036,0.031709034,0.020650842,1152,8961,9469
106.689,-1.9536686,0.05267244,10.086772,-0.07620827,-0.016653904,0.030643184,640,5121,12285
106.805,-1.7597382,0.22505496,9.967062,-0.046897396,-0.035173048,0.014522205,384,1025,15613
106.921,-1.7118542,0.4189853,9.940725,0.0025313936,-0.0495620232,0.015321592,640,-4863,14076
107.038,-1.86508308,0.5482722,9.998186,0.03450689,-0.03011026,0.05822205,4992,-13823,8444
107.152,-1.6591818,0.82360536,9.425972,0.036771824,-0.071545176,0.03703828,8064,-21759,-1540
107.268,-1.7286136,0.7422025,10.242394,-0.07181164,-0.09259571,-0.021716694,11136,-27647,-13316
107.389,-1.685518,1.2617443,9.648633,-0.06315161,-0.07407656,-0.033174578,10880,-31487,-25604
107.503,-2.0254946,1.3383588,10.469844,-0.007993874,-0.12803522,0.024514546,10368,-31999,29180
107.620,-1.412579,1.4149732,9.334992,-0.044099544,-0.13030015,-0.00053292496,8320,-30975,20220
107.735,-1.7190368,1.496376,10.192117,-0.12763554,-0.14642114,-0.019851454,6784,-30719,15100
107.851,-1.2066777,1.6112977,9.753978,-0.110315464,-0.1957167,0.013056661,6272,-30975,11004
107.974,-1.3718776,1.862689,9.911995,-0.1402925,-0.22249616,-0.008393568,5248,-29439,7932
108.091,-1.2904748,1.83874684,10.108319,-0.19505054,-0.2503415,0.016387442,3712,-30975,2812
108.208,-0.6847417,1.80522816,10.0987424,-0.1079173,-0.25260644,0.033973964,2176,-30207,764
108.326,-0.8283938,1.79325716,9.689334,-0.19624962,-0.19438438,0.011324655,384,-30463,-1028
108.443,-0.5506664,1.6208745,10.04607,-0.243147,-0.21183766,0.02784533,-896,-29440,-4
108.557,-0.24660278,1.5729905,9.737218,-0.2619326,-0.15588054,0.019318528,-3200,-28160,2044
108.678,-0.31603462,1.4939818,9.574412,-0.27818684,-0.14255742,-0.0062618684,-5248,-27136,4092
108.794,-0.05267244,1.3335704,9.801862,-0.31282696,-0.099923424,0.028644716,-7040,-25856,6396
108.909,-0.09816227,1.2114661,9.813833,-0.29524044,-0.06701531,0.050761104,-7808,-23552,7164
109.024,0.009576807,0.93373864,10.0508584,-0.30883002,-0.09272895,0.038903524,-8064,-20480,8700
109.140,0.007182605,0.79008652,10.266336,-0.312294,-0.12537059,0.035839204,-8576,-18944,10748
109.261,0.11971009,0.6631939,9.674969,-0.26806124,-0.0993905,0.02158346,-8320,-17664,11772
109.374,0.0,0.49799396,9.854534,-0.3441363,-0.08553446,0.0017320062,-8576,-15872,12028
109.487,0.20350714,0.2896984,9.92636,-0.32948086,-0.04276723,-0.0063950996,-8064,-13568,13820
109.602,0.41180268,0.02873042,9.907207,-0.30883002,-0.028245022,-0.016387442,-8320,-11776,14332
109.717,0.11492168,0.19632454,9.277532,-0.31669064,-0.01398928,0.0123905052,-7808,-10752,14844
109.834,0.20590134,-0.20590134,9.713276,-0.29630624,0.06848086,0.074476264,-7296,-9216,15356
109.955,0.25139116,-0.2633622,9.536105,-0.32108728,0.0046630936,0.03450689,-5248,-7936,12796
110.070,-0.14604631,-0.46686932,10.208876,-0.25194028,0.030643184,0.035039816,-3968,-7424,13308
110.186,-0.16759412,-0.5386954,10.374076,-0.2524732,0.0017320062,0.0466309336,-1664,-5888,12028
110.302,-0.34715924,-0.78050976,9.856929,-0.243546708,0.026646248,0.09632619,384,-4607,13820
110.419,-0.545878,-0.80445176,10.115502,-0.20917304,0.019185298,0.08606738,1152,-2559,14844
110.539,-0.46447512,-1.0606314,10.228029,-0.32521744,0.055024504,0.06488361,2432,-1535,16892
110.656,-0.90021984,-0.9624691,9.916783,-0.17719754,0.02251608,0.0723445636,3200,257,17405
110.772,-0.93852708,-0.9816227,10.266336,-0.11124808,0.053026036,0.05995406,4480,513,17149
110.887,-0.45010992,-1.2545617,9.837775,-0.20970598,0.06435069,0.066215924,5504,1537,19453
111.003,-0.7230489,-1.3359646,9.931149,-0.055157732,0.056356816,-0.009326187,6272,2049,22525
111.118,-0.49320556,-1.2114661,9.495404,-0.20397704,0.12563707,-0.041168456,7296,769,23037
111.240,-1.4197616,-1.2617443,10.96305,-0.2179663,0.1778637,0.031709034,8832,-255,25852
111.355,-1.2162545,-1.3431472,9.399636,-0.35146404,0.090996936,-0.0377044384,9856,-511,29692
111.473,-1.2258313,-1.3670892,9.78989,-0.222362936,0.10085605,0.10485299,11392,-511,-31748
111.590,-1.4317326,-1.5394718,10.436325,-0.089931084,0.06541654,0.03663859,12160,-767,-26628
111.705,-1.3096284,-1.1468226,9.679757,-0.19345174,0.0887320064,0.04769678,12416,-1535,-22020
111.827,-1.6783354,-1.3024458,9.404425,-0.15667994,0.019318528,0.009192956,11648,1,-13315
111.943,-1.5801731,-1.2449849,9.830592,-0.08433538,0.04916233,-0.009592649,11136,1025,-7427
112.057,-1.6687586,-1.0510546,9.507375,-0.16707198,0.072477792,-0.0021316998,9344,3073,-1539
112.174,-2.1691468,-0.8499416,10.168175,-0.02251608,-0.0123905052,0.053292496,7808,5121,4861
112.291,-2.0829554,-0.5793968,10.096349,-0.0050627872,-0.01625421,0.06901378,7040,5377,7933
112.406,-1.9776106,-0.4285621,10.577583,0.031575808,-0.019984684,0.06328484,4224,3841,7677
112.527,-1.6711528,-0.368707068,9.76116,0.005995406,-0.07167841,0.080871368,3712,1537,8701
112.642,-1.8459295,-0.10295067,9.797073,0.0251807024,-0.06541654,0.019318528,3712,-767,10492
112.761,-1.9536686,0.11492168,10.441113,0.00706125536,-0.0780735,0.017320062,5760,-6143,9468
112.877,-1.86747732,0.33039984,9.179369,0.0422343,-0.04396631,0.015987748,8320,-12543,5116
112.991,-1.9057846,0.6943185,10.386047,-0.032108728,-0.013589587,0.009592649,12160,-18687,-3076
113.113,-1.9033904,0.7182605,10.433931,-0.032774884,-0.13243185,0.06062021,15232,-24063,-14852
113.229,-1.733402,0.6895301,10.6158904,-0.09845789,-0.1625421,0.011058193,16768,-24575,-28676
113.344,-1.9416976,1.1611878,10.5440648,-0.027445634,-0.1881225,0.03344104,14208,-23807,25596
113.460,-1.661576,1.2952632,9.9790328,-0.114578868,-0.18066156,0.05142726,10368,-20991,18428
113.575,-1.3263878,1.1875241,10.381259,-0.11324655,-0.234353744,0.09113017,8576,-18687,15868
113.693,-0.9504981,1.1707647,9.837775,-0.15667994,-0.21676724,0.06661562,5760,-16895,11772
113.819,-0.7661445,1.2593501,9.765948,-0.187189884,-0.2793859,0.060886676,3968,-15359,9724
113.935,-0.33758244,1.1492168,9.952697,-0.20450994,-0.28351608,0.0369050536,2944,-13311,8444
114.052,-0.48362876,1.1851299,9.6845452,-0.33067996,-0.25273968,0.018918836,640,-12287,6652
114.169,-0.58897364,1.1492168,10.283096,-0.29111028,-0.170136284,0.041701376,-896,-11264,7164
114.287,-0.019153614,0.8475474,10.127473,-0.26366464,-0.179862168,0.0405023,-1920,-9216,9468
114.409,-0.12689268,0.81881692,9.916783,-0.2968392,-0.0827366,0.0466309336,-2176,-8192,8444
114.523,0.07182605,0.6967127,9.363723,-0.31509188,-0.09925727,0.059554364,-2688,-6656,9212
114.637,0.08140286,0.4189853,9.679757,-0.3659862,-0.10085605,0.041568144,-2176,-4608,11004
114.751,0.24420858,0.3184288,9.94312,-0.3476003,-0.06488361,0.045565084,-2944,-2560,12540
114.865,0.08140286,0.09816227,10.295067,-0.3487994,-0.069280248,0.03903675,-2688,-256,11772
114.979,0.11731588,-0.19632454,10.532093,-0.33041346,-0.08433538,0.01185758,-3200,768,13309
115.101,0.58418524,-0.4189853,9.821015,-0.27792036,-0.082869832,0.009592649,-2944,3584,12285
115.216,0.4213795,-0.557849,10.278308,-0.31802296,-0.0247810116,-0.011058193,-3456,4864,13821
115.332,0.30406362,-0.51954176,9.710882,-0.405156232,-0.019584992,0.0042633996,-3456,6912,13821
115.449,0.189141932,-0.7613561,9.828198,-0.369983132,-0.015854517,-0.009326187,-3200,8448,14077
115.566,0.009576807,-0.8810662,9.677363,-0.31695712,0.030909648,-0.005196018,-2688,9472,13821
115.686,0.050278236,-1.1540052,10.376471,-0.31509188,-0.007727412,0.0065283304,-2176,11264,13821
115.803,-0.02873042,-1.2306197,9.995792,-0.208107184,0.015721286,0.01625421,-1664,12032,13053
115.919,-0.047884032,-1.2880806,9.80665,-0.27485606,0.038104136,-0.007993874,-1152,13312,14077
116.034,-0.39025488,-1.3934254,10.199299,-0.25127414,0.050894336,0.016387442,384,14081,11773
116.151,-0.20350714,-1.6472107,10.431537,-0.31056204,0.085667688,0.026113322,1152,14593,11005
116.269,-0.25139116,-1.7022774,9.828198,-0.28205052,0.080871368,-0.003996937,2432,15873,12285
116.390,-0.3878607,-1.78368032,10.072407,-0.2534058,0.037837672,-0.018918836,3968,16129,12797
116.507,-0.7134721,-1.7429788,9.579201,-0.30603216,0.0635513,-0.017586524,5504,16641,14589
116.621,-0.62728084,-2.006341,9.7084872,-0.29763856,0.06261868,-0.0026646248,8576,16641,15613
116.736,-0.91697928,-2.1523874,10.144233,-0.29897088,0.10085605,-0.0031975498,9856,16641,16637
116.854,-1.3192052,-1.99437,9.710882,-0.22662634,0.08606738,0.003996937,13184,14593,18429
116.973,-1.3718776,-2.0709844,9.397242,-0.14935222,0.174666136,0.043433388,16256,11777,20221
117.090,-1.7118542,-1.9273324,9.260772,-0.19904748,0.07500919,0.00359724336,21632,7169,22781
117.206,-1.6089035,-1.9249382,9.469068,-0.19651606,0.059421132,0.04916233,28032,4353,25853
117.321,-1.520318,-2.030283,10.43872,-0.09832466,0.051560488,0.0025313936,-31616,2305,31229
117.435,-1.697489,-1.87944832,9.737218,-0.15441501,0.05342573,0.041701376,-26752,-767,-24836
117.551,-1.9153614,-1.757344,9.832987,-0.05822205,0.037837672,0.032108728,-23424,-1279,-13316
117.671,-1.7980456,-1.7166426,10.266336,-0.020650842,0.0014655436,0.034640124,-23424,-2815,-3332
117.789,-1.7190368,-1.4939818,9.555259,0.032908116,-0.075542116,0.06062021,-23680,-4095,6652
117.904,-2.0039468,-1.2258313,9.3661176,0.0062618684,0.02051761,0.08966462,-25216,-5119,15356
118.019,-2.1763294,-1.0630256,9.655815,0.046497704,-0.05062787,0.041701376,-29568,-3839,28412
118.135,-1.9656396,-0.8882488,9.998186,0.034640124,0.00053292496,0.048762636,30080,-2303,-24836
118.256,-1.9967642,-0.7278373,10.065224,0.013056661,-0.019851454,0.04316692,23680,-4863,-19972
118.372,-1.5634137,-0.49559976,9.13388,0.05835528,-0.071411944,0.0210505368,22912,-9215,-23556
118.487,-2.1045034,0.007182605,9.399636,0.018652374,-0.051560488,0.018918836,24704,-14847,31484
118.603,-1.9153614,0.24660278,10.295067,0.026379786,-0.05049464,0.01718683,27008,-20735,21500
118.719,-1.7621324,0.533907,10.19451,0.079405816,-0.13669525,0.0075941808,28032,-25087,11004
118.834,-1.85311216,0.8595184,9.940725,0.08420215,-0.169736616,0.056623276,30080,-28159,-4356
118.956,-1.84114116,0.9576807,9.859323,0.029710566,-0.10805054,0.02358193,29568,-28927,-20228
119.073,-1.7166426,1.1707647,9.947908,-0.08127105,-0.124837672,0.03144257,27008,-28159,-32516
119.189,-1.5897499,1.283292,9.61272,-0.131366,-0.077540584,0.013323124,23168,-25087,24060
119.303,-1.5179238,1.3503298,9.835381,-0.13616232,-0.07820674,-0.011191424,18304,-23039,18428
119.418,-1.7262194,1.3670892,10.141838,-0.15508117,-0.19398468,0.024647778,14720,-19967,14588
119.541,-1.1659763,1.2856862,9.689334,-0.20970598,-0.204643184,0.019718224,11392,-18687,12028
119.659,-1.103727,1.2473791,9.801862,-0.18359264,-0.197581932,0.04076876,8832,-14847,9468
119.774,-0.9720459,1.2521675,9.78989,-0.30056968,-0.15628025,0.0013323124,6784,-13311,9212
119.889,-0.91937348,1.1540052,9.775525,-0.338540568,-0.2222297,0.0210505368,5248,-11519,8444
120.006,-0.09816227,0.806845936,9.97185,-0.37024964,-0.19611638,0.04183461,3968,-9215,7932
120.121,-0.20350714,0.7350199,9.7324296,-0.33161256,-0.2772542,0.058488516,3456,-7167,8956
120.242,-0.25617956,0.5386954,9.354146,-0.385704436,-0.17266768,0.036238896,2176,-5375,8700
120.357,0.15083471,0.16998832,9.65821,-0.41341652,-0.08020521,0.011058193,1152,-2815,9980
120.471,0.10295067,0.10295067,9.332599,-0.4657764,-0.09179632,0.022116386,896,-255,10492
120.586,0.30645782,-0.22266076,9.414001,-0.564634,-0.038237368,0.010924961,384,2049,11261
120.700,0.08619126,-0.44532152,9.722853,-0.6099326,0.11231393,0.014655436,-384,5632,13309
120.820,0.7350199,-0.945709632,9.782708,-0.455517632,-0.024914242,0.036771824,-896,9472,14077
120.937,0.6631939,-1.352724,9.895236,-0.41741348,0.011324655,-0.040369064,-640,12288,14333
121.051,0.6440403,-1.3192052,9.677363,-0.37597856,0.02384839,-0.028777948,-1152,13056,14333
121.165,0.82360536,-1.6424223,9.677363,-0.39329864,-0.011191424,-0.0009326187,-896,15104,14845
121.281,0.4237737,-1.6496049,9.744401,-0.32481778,0.0014655436,0.025313934,-1152,16384,15357
121.397,0.47884036,-1.9536686,9.543288,-0.30922972,0.0053292492,0.017852986,-1152,18176,15101
121.519,0.34476504,-2.0207062,10.070012,-0.26006736,0.019185298,0.0062618684,-384,19456,14845
121.636,0.39504328,-2.0925324,9.837775,-0.2596677,0.011990812,0.018652374,384,19969,15101
121.751,0.58897364,-2.2984336,9.866506,-0.24461256,0.033574272,0.036771824,1408,20993,14077
121.867,0.29448682,-2.2816742,9.856929,-0.23275496,0.040102604,0.020784072,1920,21761,14077
121.983,0.016759412,-2.3989902,9.495404,-0.18186064,0.07341041,0.0247810116,2688,22017,14077
122.099,-0.12210429,-2.2361844,9.131485,-0.210105668,0.08420215,0.011324655,3456,22017,12541
122.222,-0.19632454,-2.3175872,9.382876,-0.09366156,0.11817611,0.05235988,5248,22017,14077
122.336,-0.12449849,-2.2720974,9.370906,-0.0528928,0.098191424,0.047963248,5248,21249,14333
122.450,-0.39025488,-2.1691468,9.217676,-0.0788729,0.12417152,0.0503614036,7552,20225,15101
122.564,-0.62967504,-2.0374656,10.031705,-0.24248084,0.13203216,0.01612098,8064,19201,16381
122.680,-0.9840169,-2.054225,8.992621,-0.25007504,0.051294024,0.044099544,9344,18945,18173
122.800,-0.6655881,-2.2529438,9.880871,-0.27005972,0.06395099,0.03011026,12160,17409,18685
122.914,-0.792480736,-2.2122424,10.101137,-0.2669954,0.043833076,0.046897396,14976,16129,20477
123.031,-1.3144168,-2.0470424,10.534488,-0.012523737,-0.050761104,0.06874732,19328,13313,23037
123.147,-1.5873557,-2.2744916,10.295067,0.013056661,-0.4243415,0.024381318,23168,10241,28413
123.263,-1.3239936,-1.7980456,10.093954,-0.014522205,0.09033078,0.048362936,29568,6401,31997
123.380,-1.3479356,-1.6831238,9.674969,-0.12403829,0.11191424,0.0528928,-32128,3841,-25603
123.500,-1.1875241,-1.7717092,9.988609,-0.04423277,-0.0177197552,0.054225112,-29312,2817,-15619
123.616,-1.8267759,-1.3335704,9.421184,-0.037304748,-0.008260337,-0.0015987749,-28544,3073,-6659
123.733,-1.2952632,-1.4221558,9.895236,-0.0050627872,-0.01851914,0.046764164,-29824,1537,-3
123.848,-1.5945383,-0.9983821,9.315839,0.006928025,-0.0026646248,0.024514546,-30848,513,7165
123.963,-1.5394718,-0.770933,9.349358,0.031842264,-0.13123277,0.0031975498,-30848,-2047,5884
124.099,-1.6448165,-0.22266076,10.599131,0.0015987749,-0.14335682,0.024381318,-28544,-6399,-1028
124.217,-1.733402,0.031124622,10.247183,0.0422343,-0.1420245,0.039702908,-26240,-10751,-7684
124.331,-1.2976574,0.17238252,10.381259,-0.009725881,-0.09259571,0.019451762,-25984,-13311,-13060
124.447,-1.0749966,0.30406362,9.828198,0.020117918,-0.026779478,-0.0018652374,-25216,-16127,-18948
124.564,-1.1707647,0.5770026,9.581595,-0.03557274,-0.06461715,0.017586524,-27008,-18175,-27908
124.683,-1.1468226,0.78050976,10.565612,-0.1381608,-0.041168456,0.00079938744,-30080,-19199,31996
124.799,-0.7613561,0.6823475,10.031705,-0.087799384,-0.16867076,0.01612098,32640,-18687,26108
124.913,-0.7781156,0.85473,9.923966,-0.04076876,-0.115644716,0.013323124,28800,-17407,19708
125.027,-0.7565677,1.0606314,9.773131,-0.021849922,-0.13363093,0.0054624808,22144,-15359,15356
125.143,-0.8475474,1.2449849,10.06283,-0.09206279,-0.11817611,-0.0018652374,18048,-14335,11516
125.258,-0.46686932,1.055843,9.923966,-0.15241654,-0.15667994,0.017053598,14720,-13055,10236
125.379,-0.29209262,1.2449849,9.433155,-0.1684043,-0.150951,0.02358193,12160,-12543,8444
125.492,-0.61530984,1.3479356,9.797073,-0.23875038,-0.061552832,0.0041301684,10624,-11263,8444
125.607,-0.5650316,1.2497733,10.254366,-0.23915008,-0.1121807,0.0074609496,9344,-9983,8700
125.722,-0.44771572,1.2162545,9.509769,-0.2187657,-0.124837672,0.02358193,8576,-8959,8188
125.838,-0.30885202,1.1923125,9.706094,-0.200113316,-0.10685146,0.022249616,8320,-8959,6396
125.961,-0.4261679,1.0582372,10.460267,-0.27445636,-0.07580858,0.024647778,7296,-8191,6396
126.076,-0.011971008,0.9935937,9.459491,-0.26473048,-0.06754824,0.02384839,5248,-7423,6140
126.189,-0.038307228,0.8523358,10.151415,-0.2725911,0.030643184,0.0067947932,3712,-6399,7420
126.304,-0.41180268,0.6703765,10.029311,-0.324951,0.009859112,-0.016520674,1664,-5631,7164
126.418,-0.23942018,0.6631939,10.407595,-0.36052372,-0.0041301684,0.011191424,640,-3839,8956
126.540,-0.29688102,0.50038816,10.486604,-0.29577336,-0.016520674,0.041168456,-384,-2560,9724
126.662,-0.04309563,0.15322891,9.885659,-0.3348101,-0.037171516,0.026379786,-640,-1792,9980
126.777,-0.22266076,0.16280572,9.710882,-0.26526338,-0.11391271,0.033041348,-1152,768,11261
126.893,-0.20829556,0.06464344,9.629479,-0.25873506,-0.08326952,0.033574272,-1920,1024,11517
127.007,0.11971009,-0.186747732,9.545682,-0.2755222,-0.09832466,0.024381318,-1664,2048,12797
127.122,-0.059855044,-0.29209262,9.7324296,-0.361989236,-0.009059724,0.017053598,-1920,3840,12541
127.245,0.047884032,-0.5530606,10.491392,-0.32561712,-0.07620827,0.004396631,-2432,4864,13565
127.359,0.079008652,-0.7589619,9.957485,-0.32921436,-0.049029092,0.0061286368,-2176,7168,14333
127.474,0.110133272,-0.92655608,9.876082,-0.26766154,-0.03344104,0.024248086,-1664,8448,13821
127.590,-0.093373864,-0.9648633,9.7563716,-0.2554043,-0.014255743,0.009459418,-1408,9984,13053
127.706,-0.23223756,-0.9624691,9.495404,-0.28844564,0.011724349,0.017320062,-384,11776,12541
127.821,-0.088585464,-1.1755531,9.892841,-0.32135376,0.03557274,0.033840736,128,12545,13053
127.942,-0.1316811,-1.388637,9.734824,-0.27285758,0.06581623,0.028111792,2432,13313,12285
128.056,-0.04070143,-1.3838486,10.031705,-0.2720582,0.008526799,0.02384839,2688,14337,14077
128.170,-0.33997664,-1.460463,9.643845,-0.28138438,0.0503614036,0.028378254,3456,14081,13821
128.286,-0.186747732,-1.79565132,10.134656,-0.28498164,0.04769678,0.007860643,4736,15361,15101
128.403,-0.34237084,-1.697489,9.619903,-0.197581932,0.039303212,0.024914242,6528,16385,15613
128.525,-0.7206547,-1.7118542,9.813833,-0.22129708,0.0571562,0.01825268,7808,16897,16381
128.638,-0.80924016,-1.7741034,9.82341,-0.2743231,0.077673816,0.03850383,8064,16641,17917
128.751,-0.9792285,-1.87705416,9.794679,-0.27832004,0.05609035,0.0251807024,9600,16641,17917
128.868,-0.89543144,-1.9416976,9.880871,-0.25780246,0.0555574268,0.011724349,12672,15617,20733
128.985,-1.1228806,-2.0135236,9.653421,-0.21596784,0.06501684,0.014388974,14464,14849,24317
129.100,-1.0845734,-2.1045034,9.782708,-0.20237826,0.06888055,-0.004529862,16512,14081,25853
129.220,-0.8571242,-2.7222072,10.512939,-0.19944716,-0.13083308,-0.018652374,19840,12801,30973
129.336,-1.42455,-2.0829554,9.969456,-0.10125574,0.0046630936,0.028644716,22144,12289,-28931
129.450,-1.5442602,-2.066196,9.749189,-0.08420215,0.09046401,0.008260337,24704,11265,-24323
129.563,-1.7477672,-1.89620768,9.651027,-0.08153752,0.07500919,0.011990812,25216,11777,-14083
129.678,-1.6591818,-1.81001652,9.461885,-0.12643644,0.0554242,0.009059724,24448,11777,-5379
129.799,-1.5729905,-1.7525556,10.072407,-0.048895864,0.015987748,0.0009326187,21888,12545,3069
129.915,-1.80043968,-1.5227122,10.117896,-0.049828484,-0.039303212,0.034773352,19840,12545,7933
130.032,-1.7741034,-1.4700398,9.868899,0.033174578,-0.169736616,0.031709034,17792,12289,15101
130.149,-1.7286136,-1.1468226,9.361329,0.022249616,-0.039836144,-0.0011990811,17792,9473,16125
130.265,-2.5450364,-0.797269168,9.938332,0.009059724,-0.169070452,0.016920368,16768,7169,19709
130.382,-1.6160861,-0.58418524,10.007763,-0.05169372,-0.08739969,-0.0013323124,18560,2561,17917
130.503,-1.484405,-0.50038816,9.696517,-0.05249311,-0.036105668,0.016920368,20864,-2559,13820
130.617,-1.2808978,-0.34476504,10.01734,-0.09899081,-0.037304748,0.0025313936,22144,-6143,10492
130.732,-1.7477672,-0.11971009,10.271125,-0.09339511,-0.057022972,0.026513018,23168,-9727,5884
130.850,-1.6112977,-0.079008652,9.7084872,-0.04529862,-0.061286368,0.024248086,25216,-13311,-2564
130.965,-1.5466544,0.16759412,10.134656,0.0041301684,-0.05915467,0.015588055,25728,-16383,-12036
131.087,-1.5179238,0.359130268,10.04607,0.012790199,-0.068214392,-0.021983154,24704,-18943,-17924
131.204,-1.4748282,0.5554548,9.818622,-0.042500768,-0.070346092,-0.01505513,22656,-21759,-26372
131.318,-1.4580688,0.6392518,9.667787,-0.06874732,-0.07580858,-0.021183766,20864,-22015,-31236
131.432,-1.520318,0.7757214,9.730036,-0.059021436,-0.08899847,-0.018652374,19840,-22271,28156
131.545,-1.2473791,0.89543144,9.988609,-0.066349156,-0.10565238,-0.022249616,16768,-21759,22524
131.661,-1.3934254,1.0031705,10.117896,-0.047963248,-0.1283017,0.008127105,13952,-20735,20220
131.782,-1.271321,1.1444284,9.91439,-0.10591883,-0.1484196,0.02038438,10880,-19711,15100
131.895,-1.163582,1.1827357,9.653421,-0.18132772,-0.14388974,0.014522205,10112,-18687,13564
132.011,-1.0055647,1.2761094,10.175357,-0.15175038,-0.17799694,0.016920368,9344,-16895,12028
132.128,-0.9935937,1.2856862,10.520123,-0.1317657,-0.19944716,0.033973964,7808,-16639,11004
132.243,-0.6727707,1.2545617,9.856929,-0.11018224,-0.13456355,0.013589587,7040,-16895,7676
132.365,-0.581791,1.352724,9.876082,-0.14508882,-0.1505513,0.04529862,5248,-15615,7420
132.477,-0.59615624,1.3814544,9.703699,-0.190254216,-0.12044104,0.022116386,4736,-15615,5628
132.594,-0.24181438,1.3263878,9.775525,-0.197049,-0.10445329,-0.0067947932,3200,-15359,5372
132.709,-0.48841716,1.3575124,10.295067,-0.2264931,-0.18492496,0.038903524,2176,-14847,4604
132.825,-0.050278236,1.115698,9.811439,-0.24021592,-0.19718222,0.032108728,896,-13823,5116
132.940,-0.31364042,1.1755531,9.26556,-0.25287288,-0.2034441,0.05768913,-128,-12288,6652
133.060,0.33518824,0.7565677,10.067618,-0.2921761,-0.15641348,0.049961712,-384,-11264,6140
133.175,0.32561144,0.545878,10.4171716,-0.3065651,-0.12723583,0.027578866,-1408,-9728,7676
133.291,0.3184288,0.50996492,10.184934,-0.31669064,-0.1377611,0.022249616,-1408,-7168,7932
133.406,0.22505496,0.46447512,9.993398,-0.30270138,-0.1309663,0.015588055,-1408,-5376,9468
133.521,0.31603462,0.016759412,9.696517,-0.29910416,-0.08713323,0.004929556,-1152,-3584,9468
133.641,0.25139116,-0.016759412,9.854534,-0.27112558,-0.056490044,0.022915774,-2176,-1280,10748
133.757,0.02633622,-0.11492168,10.201694,-0.35852528,-0.058621744,0.012523737,-640,768,11773
133.873,-0.021547814,-0.320823,10.338163,-0.32135376,-0.026113322,-0.0019984686,-896,2048,11517
133.989,0.2777274,-0.5267244,9.85214,-0.390367536,-0.036372124,0.017852986,-128,3584,11005
134.103,0.1316811,-0.6655881,10.151415,-0.36798468,0.017986218,-0.004529862,384,5889,11005
134.218,-0.016759412,-0.8834604,10.146626,-0.35039816,0.012523737,0.028911179,1920,8449,11261
134.341,0.22505496,-1.1971009,9.483433,-0.30962938,0.0210505368,0.04623124,2944,10497,11005
134.457,0.0047884032,-1.3192052,9.840169,-0.36025728,0.05835528,0.040235836,3968,12545,10237
134.572,-0.12210429,-1.5634137,10.04607,-0.3368086,0.13549617,0.053558956,4992,14337,11261
134.688,-0.32321724,-1.6089035,10.441113,-0.22982388,0.0177197552,-0.003996937,6528,15105,12541
134.805,-0.2681506,-1.81959332,9.624691,-0.25407198,0.032908116,0.027578866,7552,16129,13053
134.927,-0.217872352,-1.9800048,9.346964,-0.2755222,0.07261103,0.0251807024,9088,16641,13053
135.043,-0.39025488,-1.9728222,9.471462,-0.23355436,0.09232925,0.012124043,10112,16641,16125
135.158,-0.5506664,-1.9512744,9.543288,-0.25060796,0.07594181,0.019185298,11392,15873,16637
135.272,-0.6512229,-2.1739352,9.962274,-0.174666136,0.10285452,0.010258805,13952,14593,18429
135.388,-1.127669,-2.2481554,9.603143,-0.15441501,0.011457887,0.035839204,15232,12545,20989
135.504,-1.2401965,-2.030283,10.180145,-0.17373354,0.05835528,0.013589587,18560,9729,24061
135.625,-1.2761094,-2.018312,9.6845452,-0.14975192,0.03450689,0.0054624808,21888,7681,30205
135.740,-1.5729905,-1.9009962,9.698911,-0.13229862,-0.026246556,0.07394334,24448,6657,-31235
135.855,-1.9273324,-1.6496049,9.8042552,-0.07367688,0.0528928,0.028911179,27776,5121,-22787
135.971,-1.5011644,-1.6352397,9.988609,-0.09006432,0.1087167,0.019984684,30080,3841,-16387
136.085,-1.2976574,-1.6591818,9.916783,-0.037304748,0.054225112,0.038637056,29824,2817,-9987
136.207,-1.5346834,-1.3144168,9.574412,-0.06594946,0.011191424,-0.0015987749,30592,1281,-3587
136.322,-1.79565132,-0.9935937,9.512163,-0.06275191,0.02904441,0.027179174,29568,-767,2556
136.437,-1.7597382,-0.94092125,9.828198,-0.035839204,0.030776416,0.028911179,27520,-2303,5116
136.556,-1.7238252,-0.61530984,10.216059,0.0075941808,0.028245022,0.038370596,25728,-5119,7164
136.673,-1.5562312,-0.7254431,9.931149,0.06101991,-0.06608269,0.016653904,23168,-7679,6396
136.787,-1.84832368,-0.15083471,9.624691,0.056490044,-0.084868308,0.05435835,24448,-11775,2812
136.909,-1.7142484,0.20350714,9.287108,0.0780735,-0.09899081,0.080604892,23680,-15103,-1796
137.023,-1.84353532,0.34955344,9.895236,0.046497704,-0.07514242,0.06488361,23424,-18175,-4356
137.138,-1.5179238,0.5602432,9.873688,0.032108728,-0.07993874,0.035839204,23936,-20479,-10244
137.252,-1.400608,0.5770026,9.701305,0.077407348,-0.016520674,0.05595712,22912,-23039,-17156
137.365,-1.5969325,0.91697928,9.476251,-0.0422343,-0.07327718,0.007727412,22144,-23295,-26884
137.484,-1.5897499,1.1947067,9.440337,-0.080604892,-0.08966462,0.011058193,19328,-24319,29180
137.600,-1.5945383,1.2545617,9.947908,-0.06648239,-0.06888055,0.026646248,17024,-23807,23036
137.714,-1.388637,1.292869,10.014946,-0.11910873,-0.07873966,0.022382848,14720,-22783,20476
137.828,-1.6065093,1.5658079,10.292673,-0.010125575,-0.012124043,0.03530628,11392,-21759,16636
137.945,-1.4556746,1.6304513,9.959879,-0.14908576,-0.14988515,0.046897396,8832,-20735,14076
138.061,-1.1707647,1.6112977,9.773131,-0.16787136,-0.21596784,0.0555574268,7296,-19199,11260
138.184,-1.0702082,1.6496049,9.77792,-0.1885222,-0.1863905,0.048362936,4736,-17663,8956
138.298,-0.8834604,1.685518,9.871294,-0.175332308,-0.15494794,0.0057289432,2688,-16639,6908
138.413,-0.7374141,1.6783354,9.457097,-0.18332618,-0.1637412,0.024248086,1152,-16383,6652
138.528,-0.60812724,1.7357962,9.751583,-0.15215006,-0.25047472,0.07860643,640,-16127,6908
138.643,-0.29209262,1.6160861,9.368511,-0.29510722,-0.18319296,0.045431852,-640,-16128,4348
138.759,-0.40940848,1.6496049,9.533711,-0.3272159,-0.14921899,0.058888208,-1152,-14848,6396
138.880,0.2753332,1.3120226,9.636662,-0.32814854,-0.1061853,0.0151883616,-1920,-13824,6652
138.995,0.05746084,1.2210429,9.91439,-0.3218867,-0.11377948,0.019851454,-1664,-12288,8700
139.109,0.34715924,1.1492168,10.158598,-0.28777948,-0.11870903,0.015321592,-2176,-11520,7420
139.231,0.4189853,1.0079589,9.354146,-0.47869984,-0.21543492,0.04569832,-2688,-9728,10236
139.345,0.20111294,0.6560113,10.33098,-0.24421286,-0.06541654,0.02598009,-2432,-5888,10748
139.464,0.20111294,0.39264908,9.634268,-0.3577259,-0.061686064,0.008526799,-1408,-4352,10236
139.579,0.51235916,0.04309563,9.825804,-0.38583768,-0.07274425,0.01185758,-1408,-2048,12028
139.692,0.4285621,-0.12689268,10.09156,-0.4043568,-0.02384839,0.031842264,-1664,768,12541
139.805,0.5482722,-0.6512229,10.680533,-0.374779468,-0.0151883616,0.003330781,-384,3840,12797
139.922,0.363918668,-0.6943185,9.959879,-0.29910416,-0.013323124,0.015987748,128,6401,12797
140.038,-0.12449849,-0.80924016,10.718841,-0.26672894,0.0377044384,-0.05369219,1664,8449,12285
140.161,0.361524436,-0.9768343,9.605537,-0.4888254,-0.0013323124,-0.027045942,2688,8961,11261
140.276,0.20111294,-1.2042835,10.067618,-0.27911946,-0.0067947932,0.017586524,3712,11265,12029
140.393,0.25139116,-1.4269442,10.34774,-0.243546708,0.056756508,-0.014522205,5760,12545,12541
140.510,0.059855044,-1.436521,9.457097,-0.26686218,0.03144257,-0.04103522,7040,11777,13053
140.624,-0.22266076,-1.520318,10.081984,-0.2216968,0.06888055,-0.02051761,8320,13057,13565
140.743,-0.7110779,-1.5849615,10.13705,-0.32561712,0.0123905052,-0.013189893,10880,12801,14845
140.860,-0.39743748,-1.6160861,9.557653,-0.21383614,0.036771824,-0.0014655436,12672,12289,14589
140.976,-0.80924016,-1.7597382,10.103531,-0.22076418,-0.017320062,0.02251608,14976,10241,16125
141.092,-0.62009824,-1.721431,9.739613,-0.16360796,0.07487596,0.008260337,16256,9729,18429
141.206,-0.61530984,-1.6065093,9.801862,-0.13616232,0.09899081,-0.015854517,18560,6401,21501
141.321,-0.62249244,-1.7549498,9.466674,-0.06435069,0.058754976,0.024647778,20864,3073,24317
141.442,-0.7733272,-1.5562312,9.258378,-0.061552832,0.09272895,0.0210505368,23168,-1279,29436
141.557,-1.0534488,-1.5514428,9.593566,-0.08127105,0.04423277,0.04303369,24448,-4351,32252
141.671,-1.0151415,-1.3694834,9.787497,-0.015854517,0.050761104,0.03903675,27008,-7935,-28676
141.787,-1.0366893,-1.103727,9.174581,-0.04423277,0.055157732,0.08833231,27776,-11007,-24836
141.901,-1.2186487,-0.9768343,9.653421,-0.08073813,0.08620062,0.0528928,30848,-13823,-22788
142.019,-1.4221558,-0.6871359,10.235212,0.026379786,0.027445634,0.04969525,32384,-18431,-18948
142.135,-1.6328455,-0.25617956,10.359711,0.059687596,-0.005196018,0.0518269536,-30080,-22271,-18436
142.252,-1.5035586,-0.076614456,10.6877168,0.08180398,-0.11577795,0.051560488,-28032,-27135,-20484
142.369,-1.721431,0.25617956,9.952697,0.011324655,-0.03996937,0.042633996,-27008,-30207,-25860
142.484,-1.6998832,0.46926352,10.103531,0.016387442,-0.0303767232,0.019451762,-27520,-31487,30204
142.607,-1.3575124,0.7278373,9.636662,0.09685911,-0.0034640124,0.03703828,31360,-29439,19196
142.721,-1.328782,1.0821792,10.177752,-0.014522205,0.006661562,0.041701376,24448,-25343,14844
142.836,-1.2473791,1.1947067,9.883265,-0.040102604,-0.08007197,0.043699844,18816,-20991,11772
142.952,-1.3215994,1.1659763,9.909601,-0.207174576,-0.1484196,0.0723445636,13952,-16895,10492
143.069,-1.3263878,1.3623008,9.976639,-0.18532466,-0.18146096,0.03650536,10624,-13567,8956
143.184,-1.1707647,1.283292,10.012551,-0.2179663,-0.16054364,0.04196784,10112,-10751,8444
143.305,-1.0366893,1.2401965,10.232818,-0.26286524,-0.14269066,0.0422343,7552,-9983,8700
143.421,-0.806845936,1.1252748,9.629479,-0.21556814,-0.15334916,0.024914242,5248,-9215,6652
143.538,-0.79487496,1.067814,9.854534,-0.21490198,-0.10711791,0.019451762,3712,-7679,7676
143.653,-0.6607997,1.0295067,9.64145,-0.170136284,-0.112447168,0.022382848,1408,-7167,8444
143.769,-0.62967504,1.13964,9.91439,-0.2371516,-0.10458652,0.024248086,128,-7167,8700
143.884,-0.5722142,1.0390835,9.809045,-0.24461256,-0.11484533,0.033840736,-1152,-6656,10236
144.005,-0.6727707,1.0055647,10.283096,-0.225427268,-0.1782634,0.054491576,-1920,-6144,10748
144.121,0.32561144,0.5267244,10.201694,-0.244745784,-0.12030781,-0.019718224,-2432,-5888,11260
144.238,0.1316811,0.7445967,10.0269168,-0.25740276,-0.13069984,-0.0025313936,-3200,-4864,11516
144.354,-0.090979668,0.80924016,10.024523,-0.22556048,-0.13256508,0.019984684,-2944,-4096,12028
144.470,-0.8355764,0.9888053,10.086772,-0.244745784,-0.14175804,0.01851914,-3200,-2560,13052
144.591,-0.2705448,0.4141969,9.464279,-0.25020826,-0.0887320064,0.05395865,-2944,-2048,13564
144.706,-0.24420858,0.272939,10.177752,-0.33933996,-0.0421010736,-0.010258805,-2432,-512,15100
144.822,0.11731588,0.074220252,10.491392,-0.38357272,-0.059554364,0.010258805,-1920,2048,15101
144.939,-0.04070143,-0.12928688,10.82658,-0.328415,-0.08433538,0.015321592,-2944,4608,15101
145.052,0.20111294,-0.45250412,9.919178,-0.377710584,-0.09632619,0.015987748,-1920,6400,15357
145.168,0.25139116,-0.7086837,9.94312,-0.42287596,-0.07780705,-0.010924961,-1152,8192,16893
145.288,0.39264908,-0.945709632,9.940725,-0.417679932,-0.07527565,-0.032774884,-128,10752,15613
145.405,0.2777274,-1.2258313,10.081984,-0.40715468,-0.00013323124,-0.035839204,384,13057,14333
145.521,0.51954176,-1.6352397,9.811439,-0.412084232,-0.059687596,-0.03144257,384,14849,14845
145.637,0.22744916,-1.5634137,9.6845452,-0.342670752,0.0014655436,-0.028777948,1920,16385,14589
145.754,0.06464344,-1.7597382,9.667787,-0.3313461,0.01505513,-0.03703828,3200,17409,14589
145.873,0.08379706,-1.9057846,10.036493,-0.28777948,0.04276723,-0.03996937,4736,17665,14333
145.987,-0.1388637,-1.9680338,10.0269168,-0.29990354,0.029577336,-0.024114854,6528,18177,14077
146.104,0.11492168,-2.2864626,9.82341,-0.38530476,0.007993874,-0.03424043,8832,19457,15101
146.217,-0.220266544,-2.3319526,9.753978,-0.3142925,0.07687443,-0.020650842,11904,19713,14333
146.333,-0.4261679,-2.6264394,9.703699,-0.336142432,0.071411944,-0.0105252684,14208,19713,15613
146.456,-0.4357447,-2.731784,9.380483,-0.28298316,0.061952524,0.00026646248,16512,19201,16125
146.570,-0.35194764,-2.837129,9.660604,-0.26939356,0.024114854,-0.003996937,18560,17665,18429
146.684,-0.5434838,-2.705448,9.706094,-0.19238591,0.03543951,-0.00079938744,21376,15105,21245
146.799,-0.5554548,-2.681506,9.579201,-0.12323889,0.10805054,-0.0034640124,23680,12033,25085
146.914,-0.7565677,-2.5450364,9.662998,-0.024647778,0.13363093,0.008260337,24448,8193,29181
147.029,-1.0941502,-2.3870192,9.665392,-0.01851914,0.06501684,0.002797856,25216,4097,-31235
147.148,-1.2186487,-2.3439236,9.454702,-0.026779478,0.09645942,0.02025115,24960,-511,-25860
147.263,-0.9888053,-2.2816742,9.969456,0.0699464,0.05062787,0.01398928,23680,-3583,-20740
147.375,-0.9672575,-1.81959332,9.093178,0.056756508,0.03650536,0.0063950996,21120,-6143,-18948
147.490,-1.5275006,-1.4939818,10.82658,0.13376416,-0.02384839,0.022382848,17536,-8447,-15108
147.605,-1.5873557,-1.2449849,9.830592,0.012124043,0.04196784,0.0057289432,13440,-7679,-11780
147.726,-1.87705416,-0.8595184,9.952697,0.13376416,0.031709034,0.03117611,8832,-5631,-9732
147.841,-1.78607452,-0.50278232,9.193734,0.12124042,0.0010658499,-0.009192956,7552,-5631,-12036
147.957,-2.1571758,-0.1604115,9.811439,0.109516084,-0.017453292,0.03130934,6784,-7423,-11780
148.073,-2.0733786,-0.011971008,9.873688,0.2055758,0.17213476,0.087666152,8064,-14591,-13316
148.188,-2.0374656,0.368707068,10.82658,0.23661868,0.040102604,0.08020521,10880,-22527,-18436
148.304,-0.2825158,-0.6607997,10.936713,0.044499232,-0.06808116,-0.047563552,14464,-27647,-25348
148.424,-1.6759412,0.5243302,10.084377,0.012124043,-0.059287901,-0.0780735,16000,-31231,-32260
148.540,-1.982399,1.0007763,9.519346,-0.036372124,-0.044765696,-0.04942879,14720,32001,28156
148.654,-1.6543933,1.3072342,10.508151,-0.14149158,-0.09632619,-0.044632464,11904,31233,25340
148.771,-2.0733786,1.5490486,9.68694,-0.21316998,-0.20757426,0.036238896,11136,-31487,21244
148.887,-2.054225,1.4508862,9.121908,-0.20197856,-0.15041808,0.01851914,11136,-27903,17660
149.007,-1.5993267,1.2354081,9.349358,-0.16400766,-0.15681316,-0.0025313936,10624,-25599,14076
149.123,-1.3838486,1.3215994,10.314221,-0.14508882,-0.19251914,-0.019052068,9600,-22271,11772
149.240,-0.92416184,1.4269442,9.593566,-0.09592649,-0.11324655,0.024114854,9088,-20735,8956
149.355,-1.4676456,1.3958196,10.275913,-0.2162343,-0.11537826,0.031709034,6784,-19967,4860
149.471,-0.8355764,1.271321,9.332599,-0.18052833,-0.22995712,0.049029092,2944,-18175,2556
149.587,-1.0031705,1.3144168,9.751583,-0.24794334,-0.20091272,-0.009592649,-1152,-17920,1788
149.708,-0.806845936,1.3120226,9.56723,-0.22289586,-0.14602144,-0.012790199,-3968,-16896,2300
149.824,-0.7589619,1.1707647,10.25676,-0.27485606,-0.19771516,0.0061286368,-6528,-16896,1532
149.939,-0.8595184,1.0773908,9.770737,-0.28205052,-0.13696172,0.015454824,-8832,-16128,2556
150.054,-0.7062895,0.90021984,10.172963,-0.266196,-0.123771824,0.02371516,-9600,-14080,3580
150.169,-0.7230489,0.80445176,10.213664,-0.3368086,-0.11950842,0.030243492,-10624,-13824,6396
150.290,-0.7589619,0.78050976,9.43076,-0.3144257,-0.10978254,0.027179174,-11392,-12288,7932
150.404,-0.2873042,0.4333505,9.694122,-0.28458192,-0.10418683,0.018119448,-11392,-11520,8956
150.518,-0.59855044,0.2873042,9.85214,-0.29830474,-0.12190658,0.03450689,-11904,-9984,9468
150.632,-0.6607997,0.10055647,9.76116,-0.37304748,-0.10445329,0.030509954,-11648,-7424,11004
150.747,-0.39504328,-0.17477672,9.916783,-0.26166616,-0.045831548,0.027445634,-11648,-5376,12028
150.863,-0.375889668,-0.30645782,9.797073,-0.37651148,-0.06954671,0.005196018,-10624,-4096,12028
150.984,-0.2777274,-0.6775591,9.888053,-0.353062768,-0.049029092,-0.01079173,-9600,-1280,12284
