# epoch_start_s=1609459202
timestamp_s,accel_x,accel_y,accel_z,gyro_x,gyro_y,gyro_z,mag_x,mag_y,mag_z,wind_vane_deg
# wind_vane_deg is blank for the first 270 s, populated for the final 30 s
0.119,1.1295433,-3.5893312,9.155602,0.25432488,-0.5492516,-0.13595768,-27776.0,-29444.5,-24445.5,
0.235,2.3864992,-1.6332684,7.0630708,-0.5128206,-0.062158228,-0.60533136,-21888.0,-30212.5,-22141.5,
0.352,1.3545983,0.0785858,7.72387,-0.7108022,0.234814216,-0.86633132,-19840.0,-18948.5,-21885.5,
0.467,1.2540419,-2.9405024,11.487555,-0.3922463,1.0429948,-0.930282336,-19840.0,-2820.5,-29053.5,
0.591,-0.04361546,-0.11773874,13.041391,1.0411886,0.339001068,-0.12010315,-27776.0,4603.5,29315.5,
0.709,-7.348325,-1.7841032,10.446077,1.9864642,-0.79146608,0.090935128,-28800.0,-10500.5,-29821.5,
0.826,-1.4298582,2.2620978,9.981602,0.67480264,-1.1824998,0.31929348,-16512.0,30203.5,-17021.5,
0.943,2.2452414,1.2732926,5.3129088,-0.65737648,0.038564592,0.2665339,-5760.0,24059.5,-11901.5,
1.060,1.5437403,1.6276343,6.53874,-1.0894455,0.6275799,-0.10371571,-9856.0,-27908.5,-12669.5,
1.182,-0.14896029,-0.6348863,10.369463,-1.4233229,0.85966872,-0.005524288,-18560.0,-9988.5,-20349.5,
1.299,0.05933523,-7.90368236,15.165049,-0.439809868,0.33513736,-0.06547835,-28544.0,5883.5,-32636.5,
1.417,-0.9270759,-6.0481764,12.215392,0.96617944,-0.237757008,-0.89657484,-30592.0,6907.5,28035.5,
1.535,0.4208597,-0.9030369,9.749365,1.0609068,-0.6337202,-1.4318979,-20608.0,1531.5,-28796.5,
1.650,0.09045982,0.15280604,7.11334836,0.7627353,-0.41508776,-0.8314248,-6784.0,-5380.5,-19581.5,
1.771,-10.523036,3.914097,3.2299532,0.5382407,-0.8335671,-0.230018932,4224.0,-11011.5,-14717.5,
1.888,-0.9151048,-0.24463144,12.720569,-0.3016491,-0.27159774,0.33274984,12416.0,-14595.5,-12669.5,
2.005,1.4814911,0.7465681,9.778095,-0.701342768,1.0713731,0.2047146,12160.0,-10499.5,-15229.5,
2.122,0.18143952,0.98598824,10.127648,-0.8837363,0.74975292,0.14782487,-3456.0,507.5,-21116.5,
2.239,-1.0204496,1.4337039,10.702257,-1.0353537,0.33846812,0.69687068,-12672.0,12027.5,-29052.5,
2.357,-0.62540644,-8.899671,11.635996,0.517723,-0.12371105,0.56870232,-21888.0,19963.5,27523.5,
2.479,2.1829922,-3.6563688,10.429317,1.3925192,-0.068953016,-0.0281736,-25472.0,5627.5,-31100.5,
2.595,0.914065232,-0.1823822,7.5634584,0.473357032,-0.09280141,-0.3383359,-24704.0,-8964.5,-24445.5,
2.712,0.20298734,1.2948403,6.8068904,-0.20545616,0.0296381,-0.47756258,-21888.0,-14084.5,-22397.5,
2.830,-1.7889886,0.3587074,10.642402,-0.25435204,0.30076368,-0.26838952,-21120.0,-10756.5,-22653.5,
2.947,-7.594928,-1.8008626,13.271235,-0.2551514,0.15607456,0.5275339,-21888.0,-5636.5,-29309.5,
3.068,-1.3867626,0.025913366,9.361504,-0.054771604,0.23468096,0.59814644,-24704.0,-4868.5,-30333.5,
3.185,-0.82173108,-0.3499763,5.458955,0.185710784,-0.39150584,0.5551128,-29568.0,-5124.5,-30077.5,
3.301,2.0369458,0.01633656,11.722187,-0.5204147,-0.62972324,0.44586316,-29824.0,-7428.5,-26493.5,
3.417,0.590848,0.9644404,9.840344,-0.12338568,-0.0189912984,-0.38443392,-26496.0,-6148.5,-26237.5,
3.532,-1.274235,-3.325969,10.180321,0.9772376,-0.3912394,-0.2469393,-19584.0,-4612.5,-25213.5,
3.652,-0.75229912,0.25096834,8.703098,0.5301135,-0.191925452,-0.078535008,-12928.0,-13316.5,-19069.5,
3.770,0.8613928,1.1727359,6.6871804,-0.36000436,0.3837667,-0.22975246,-13440.0,-15876.5,-17277.5,
3.887,0.6459147,0.238997316,6.6057776,-0.5246782,0.61931956,-0.3825687,-19328.0,-11524.5,-20861.5,
4.003,-1.5136554,0.26772772,10.582546,-0.4915036,0.9045677,-0.28704188,-22400.0,-5124.5,-26493.5,
4.119,-9.280446,-2.291674,15.641495,0.23913652,0.5824145,0.658367,-31360.0,3323.5,30595.5,
4.238,-6.005178,-2.1073204,11.27926,0.6933218,-0.4014982,0.9747911,22144.0,-9988.5,28802.5,
4.352,-1.0467861,2.1735124,6.9936384,0.020504058,-0.059760064,0.7965278,26240.0,-30212.5,-31357.5,
4.469,-0.74751068,-0.21590102,5.2003812,-0.646718,-0.06708778,0.29997496,28288.0,-27652.5,-28541.5,
4.584,-0.9222875,0.72023184,6.2514356,-0.5154852,-0.66836036,0.27905764,26240.0,-20228.5,-28797.5,
4.700,2.3290384,1.2565332,11.896963,-1.1096966,0.080798892,0.3744512,29568.0,-19716.5,-27773.5,
4.822,-4.1640368,-4.894171,14.868168,0.041288124,0.5367162,0.16061507,28800.0,-8708.5,31618.5,
4.938,-2.8017358,-4.8726236,11.810772,1.0691671,-0.5244706,-0.7692058,23680.0,-10244.5,29058.5,
5.054,1.4647317,-0.6636167,8.097365,0.53544276,0.328609,-1.3524921,28544.0,-18692.5,-29821.5,
5.169,-0.675684736,-0.6109443,5.1070076,0.67227128,-0.16114904,-1.2944033,32640.0,-18436.5,-28285.5,
5.286,-3.0196082,3.059367,7.972867,0.2684474,0.0043241644,-0.8043788,-25216.0,-15364.5,-23933.5,
5.401,-6.112917,0.05224958,13.644731,-0.64378684,-0.08973709,0.1820653,-25728.0,-10500.5,-24701.5,
5.522,-4.240651,1.3259649,11.2170104,-0.72265976,-0.07268349,0.40576056,-26240.0,-7172.5,-29565.5,
5.640,-2.5623156,1.3642721,5.2985436,-0.15402888,0.15221083,0.40775904,-24192.0,-1284.5,-29565.5,
5.758,-1.1329772,1.4576459,6.3328384,-0.282597,-0.13170492,0.6381158,-29824.0,2043.5,-31868.5,
5.873,1.7855546,-0.440956,10.09413,-0.7386475,-0.03591167,0.52406984,-32640.0,-2564.5,32386.5,
5.987,-2.5982288,-4.879806,14.477913,-0.07035966,-0.020590074,-0.614391,-30080.0,5627.5,27779.5,
6.108,-1.8249016,-3.946067,11.554592,1.0868869,-0.3144982,-0.3736422,-29568.0,8699.5,28803.5,
6.223,0.94518984,0.054643784,7.4413544,0.21209056,0.09678665,-0.8054447,-24960.0,-3588.5,-29053.5,
6.339,-0.32134284,0.6124928,5.1046132,-0.21371646,0.32181418,-0.6147908,-19328.0,-4.5,-28541.5,
6.455,-2.6054112,1.4289155,9.416571,-0.20079304,0.072805024,-0.4112134,-22656.0,8443.5,-30076.5,
6.571,-10.748092,-6.5246224,15.596005,0.45936776,-0.65117352,0.5272674,-23424.0,6395.5,-32892.5,
6.693,0.1598917,0.33715956,10.750141,-0.5270763,0.051488028,0.4998218,-14976.0,-4.5,-27517.5,
6.809,-1.9565826,1.019507,4.9585668,-0.459927736,0.1418188,0.5199397,-21888.0,7419.5,-29820.5,
6.925,-0.32134284,-0.32603428,7.132502,-0.6918834,-0.22763144,0.222301108,-25472.0,7419.5,32131.5,
7.042,-1.1569192,-2.2078768,16.055692,-0.0153351568,0.33034104,-0.398689668,-22656.0,12795.5,28547.5,
7.161,-2.339655,-6.2612604,11.741341,1.3013891,-0.24188716,-0.61958708,-23936.0,16123.5,27267.5,
7.278,0.27960178,2.4225094,8.4708608,0.31108138,0.4154758,-0.43812612,-21376.0,507.5,-29820.5,
7.401,0.0042685868,-0.16322857,3.95539616,-1.0727916,0.5512384,-0.58388116,-21376.0,4347.5,-29820.5,
7.519,-3.79293532,-1.460886,7.750206,-0.204390268,0.1673992,0.185929,-22912.0,22779.5,25731.5,
7.635,-7.027502,-6.598843,12.909711,0.405142668,0.3480608,0.920033136,-29568.0,20987.5,23939.5,
7.752,-3.79293532,-1.5734134,11.18828,0.26644892,-0.29771108,1.3122659,29056.0,2811.5,26243.5,
7.870,-1.2407162,-0.08900832,7.2450296,-0.1588252,-0.180334332,1.2347252,28544.0,-11012.5,30594.5,
7.992,-0.232757392,0.25575674,7.082224,-0.76249592,0.065877,0.9686625,27264.0,-13316.5,32130.5,
8.109,0.28917858,-2.0522538,13.448406,-0.20359088,-1.0446054,0.11531644,23168.0,-9988.5,30082.5,
8.227,-2.9860894,-4.721789,12.797183,0.5598241,-0.56830364,-0.7899898,30080.0,-13572.5,-30845.5,
8.343,-0.15374875,-0.81205732,8.86351,0.4391166,0.065877,-0.94200664,-24960.0,-17924.5,-24189.5,
8.457,-0.34289068,0.41137984,4.9992684,-0.031056448,0.20283872,-0.9613252,-19328.0,-13572.5,-22397.5,
8.579,-0.79778904,1.2780809,7.90343468,0.0058486164,0.4554451,-0.7259056,-19072.0,-4356.5,-22653.5,
8.696,-0.9965077,2.07535,13.189833,-0.07182519,0.7368296,0.07268245,-27264.0,-772.5,-27005.5,
8.810,-5.511972,-1.2094948,10.726199,0.24313346,-0.0616253,0.6223945,31104.0,-6148.5,32130.5,
8.924,-2.5958344,-1.676364,10.63522,0.19663576,-0.20431594,0.54765176,32640.0,-14596.5,-29565.5,
9.046,-0.833702,1.5941155,7.0510992,-0.363868068,0.04256153,0.33141752,-31616.0,-16132.5,-26749.5,
9.168,-0.66850204,0.013942353,7.4652963,-0.61487576,-0.14689328,0.25614188,30080.0,-11012.5,-29309.5,
9.288,1.4048766,-1.460886,14.056534,-0.5112218,-0.7245839,-0.2854431,30848.0,-7684.5,-31613.5,
9.403,-0.56315724,-4.781644,13.912881,0.27311048,-0.60774016,-1.0323374,-22400.0,-3332.5,-29053.5,
9.519,-0.1441719,-1.7170656,9.629655,0.414468832,-0.080277672,-0.93134816,-9856.0,251.5,-24188.5,
9.637,-0.034038664,0.43292764,6.146091,0.10777051,0.3688448,-0.767607,-6272.0,3067.5,-22140.5,
9.752,-0.1130473,0.8303651,5.988074,-0.064497484,0.48075908,-0.436927016,-9088.0,4091.5,-22140.5,
9.873,-1.3771858,1.2732926,10.3814332,-0.18094156,0.52739,0.28678508,-14464.0,3067.5,-25468.5,
9.990,-4.8368072,-2.3323752,13.027026,-0.4323489,0.57735176,0.8338325,-19840.0,3323.5,-30332.5,
10.106,-3.1465008,-0.9221905,10.364675,-0.028924748,-0.37725008,0.94321532,-27520.0,3067.5,30595.5,
10.223,-1.4992902,-0.51996464,6.5315576,-0.34121876,-0.29611224,0.83236696,-32128.0,-2308.5,-32125.5,
10.340,1.4814911,-0.5510892,8.19074,-0.42875164,-0.4983573,0.24974676,-31360.0,-5380.5,-31869.5,
10.461,-0.026856006,-2.1240796,12.938441,-0.2058558,-0.2773267,0.1368999,-28800.0,-4100.5,-31613.5,
10.577,-0.9677773,-4.451244,10.762112,0.525184,-0.20191778,-0.49248444,-22400.0,763.5,-29820.5,
10.692,-0.81694264,-1.4872222,9.392629,0.7752591,0.24400716,-0.939475264,-19072.0,-1028.5,-25981.5,
10.809,0.28199598,0.55982036,5.5786652,0.13881339,0.7012568,-0.8973742,-20352.0,-2052.5,-24445.5,
10.925,-3.53914968,0.059432188,9.289678,0.007047698,0.529122,-0.36511536,-26240.0,-260.5,-27773.5,
11.047,-4.867932,-1.2693498,12.672685,0.0391564232,-0.2369576,0.6270576,-31616.0,-1796.5,-30589.5,
11.163,-3.58464,0.6244638,9.440513,0.2484627,-0.6057416,0.9080423,-28800.0,-9988.5,-29053.5,
11.275,-1.1617076,1.3810315,8.1045468,-0.29485428,-0.25481056,0.8177115,-22144.0,-16132.5,-22909.5,
11.392,-1.463377,1.2397735,5.9952564,-0.5184163,0.25546504,0.963333264,-24704.0,-12292.5,-23933.5,
11.509,0.8733638,-2.5263056,13.841055,-0.800466836,0.046824932,0.5316641,-32640.0,-10500.5,-28029.5,
11.632,-1.2239568,-2.294068,12.500302,0.0791258,-0.914571664,0.122777392,32384.0,-9220.5,-30589.5,
11.749,-0.37401528,-3.385824,12.399746,0.56515336,-0.24774932,-0.33353958,-23424.0,-12036.5,-25469.5,
11.866,0.4256481,-2.1575984,11.008715,0.047816456,0.17326138,-0.48528996,-19328.0,-12292.5,-23165.5,
11.983,-0.29740084,-1.62848,7.831609,-0.1660197,0.18631804,-0.39762384,-23424.0,-9732.5,-23933.5,
12.097,-0.51048476,-0.168016976,7.35276836,0.13668169,-0.24415208,-0.56096536,-22656.0,-9732.5,-24189.5,
12.222,1.3713577,-0.85275864,9.351927,0.11882871,0.15980503,-0.25799748,-15232.0,-9476.5,-21885.5,
12.340,-0.1202299,0.7609333,7.9130116,-0.22250972,0.65329356,-0.24240944,-17792.0,-4868.5,-23421.5,
12.457,-0.59907024,1.4744053,10.623248,-0.016001314,0.6526274,-0.078401776,-26496.0,-1540.5,-27773.5,
12.574,-2.5694984,0.24378572,12.859432,-0.33815444,0.55869936,0.29131492,31872.0,-3332.5,32386.5,
12.691,-4.204738,-2.090561,11.971184,0.5166572,-0.3402118,0.28638536,30336.0,-4612.5,30082.5,
12.806,-2.9836952,-0.191959,10.053428,0.41873224,-0.212976,0.1010607,31872.0,-10244.5,-30589.5,
12.926,-1.2574756,-0.0052112564,8.264959,-0.14803346,0.14168558,0.13983099,30336.0,-17412.5,-28285.5,
13.043,-0.26148778,-0.26378504,7.290519,-0.510156,-0.015926984,-0.022844348,30336.0,-18436.5,-30589.5,
13.159,-0.53921516,-0.6588283,7.915406,-0.2177134,-0.0509668,-0.3796376,32640.0,-11268.5,-32381.5,
13.272,1.4048766,-1.6715756,13.759652,0.0535454,-0.10119498,-0.59080916,-28544.0,-5892.5,-32381.5,
13.388,-0.9414411,-4.499128,12.217787,0.226079852,-0.310368,-0.9478689,-23168.0,-260.5,-29821.5,
13.509,0.4256481,-2.7369952,9.280101,0.38222684,0.189515584,-1.1176054,-16512.0,2043.5,-28284.5,
13.626,-0.1393835,-1.0969672,6.7590068,0.34425596,0.37577284,-1.0219454,-13440.0,2811.5,-26748.5,
13.743,-0.869615,0.8255767,7.7669656,0.1721212,0.39535784,-0.904968464,-12672.0,5115.5,-26748.5,
13.859,-5.629288,-1.8391698,12.323132,0.20569548,-0.233626832,-0.015916326,-13440.0,7675.5,-27260.5,
13.976,-3.86476132,-0.16562277,11.647966,0.3222728,-0.7417708,0.17180648,-9600.0,3835.5,-23420.5,
14.099,-1.2095916,1.1607649,6.9026584,-0.12445153,0.00072692332,0.45572224,-4224.0,-516.5,-19325.5,
14.216,-0.24472838,1.1655533,5.3967056,-0.53493696,0.31035632,0.18632868,-7296.0,763.5,-20860.5,
14.333,3.3058726,-3.9364904,10.477201,-0.942091664,0.13435786,-0.33180758,-12160.0,8699.5,-24956.5,
14.452,-1.9805248,1.4384923,13.036603,-0.5964898,-0.6686268,-0.6690159,-11648.0,22267.5,-32892.5,
14.567,-3.43859336,-4.649963,11.090117,-0.016001314,-0.13650126,-0.440257832,-2688.0,30459.5,28803.5,
14.692,-0.07234585,-4.154363,10.515509,0.963781264,-0.12584276,-0.62798064,4480.0,29436.5,30339.5,
14.809,0.21735254,0.028307564,7.3312208,0.31214724,0.5424451,-0.5880113,8832.0,19964.5,-26748.5,
14.925,0.4208597,1.2158315,8.908999,0.203430544,0.16620013,-0.3471292,7296.0,17148.5,-25980.5,
15.042,-1.3484554,0.7585391,8.042298,0.3461212,-0.115450728,0.28531954,6272.0,14844.5,-24956.5,
15.159,-3.90306836,1.2469564,11.559381,0.56555308,0.27931344,0.4827682,4480.0,7164.5,-22652.5,
15.283,-3.0387618,1.3499069,10.187504,-0.07329075,0.33593672,1.0920347,-4224.0,-3844.5,-19581.5,
15.400,-1.142554,-0.7785384,9.136449,-0.6696338,0.31288772,1.290416,-11648.0,-5124.5,-22141.5,
15.513,-0.402745668,1.0554202,6.8667452,-0.9568804,0.07626903,1.1462599,-19072.0,-3076.5,-26749.5,
15.630,-0.421899268,-0.24223724,8.724647,-1.190568,-0.205381808,0.64850784,-22912.0,4603.5,-31868.5,
15.748,0.83266232,-3.124856,10.6759208,-0.9415588,-0.18020112,-0.07760239,-24704.0,15099.5,26499.5,
15.864,-3.2494516,-4.499128,8.252989,-0.08474864,-0.43893616,-0.0522884536,-22656.0,25595.5,19843.5,
15.985,-1.2598698,-3.8167804,7.486844,0.91728352,-0.71592384,0.12091216,-17024.0,23547.5,24195.5,
16.102,0.11200768,-1.3651178,9.181939,0.942331,-0.49249512,0.23828888,-11136.0,12283.5,-29820.5,
16.218,-0.402745668,-0.9652862,9.081382,0.6821304,0.169930584,0.35020312,-8832.0,763.5,-22908.5,
16.335,-2.219945,-0.6085501,10.343126,0.446977236,0.07706842,0.48716484,-13440.0,-8964.5,-18813.5,
16.451,-1.8703914,-0.426590752,10.448471,0.14241064,0.06574377,0.77427816,-16768.0,-16900.5,-17789.5,
16.575,-1.1641018,-0.7713558,11.391787,-0.06569657,0.07813427,0.6495737,-20608.0,-22788.5,-18045.5,
16.691,-0.9725657,-0.1871706,9.758942,-0.011338219,-0.021789156,0.40402852,-22912.0,-25860.5,-18557.5,
16.806,0.037787436,-0.11773874,8.992797,-0.10260163,0.12996122,0.20391522,-23936.0,-28932.5,-18557.5,
16.923,-2.8663792,3.1168278,19.433312,-0.64312076,-2.0109318,-0.22762076,-26240.0,-28932.5,-19325.5,
17.040,-1.484925,-0.32364008,9.411782,-0.0068083555,-0.019390992,-0.0016605817,32384.0,-27140.5,-27517.5,
17.164,-0.9869309,0.13844084,9.938506,-0.008407116,-0.017925452,0.010729923,-31872.0,-28164.5,-27517.5,
17.279,-0.8265194,0.28688132,9.828373,-0.0057424904,0.0040577016,0.00087081176,-30592.0,-28420.5,-27261.5,
17.396,-0.71638616,0.27251612,9.85471,-0.006142199,0.0008601546,-0.0008611949,-29312.0,-28676.5,-26237.5,
17.510,-0.64695424,0.31321758,9.873863,-0.00361080468,0.0063226336,0.0022031236,-29056.0,-27908.5,-27517.5,
17.629,-0.68286732,0.32040018,9.83795,-0.008407116,0.0016595423,0.00020465534,-29056.0,-28420.5,-26237.5,
17.751,-0.71159776,0.21026689,9.859498,-0.00361080468,-0.005668178,0.00087081176,-28800.0,-27396.5,-27005.5,
17.870,-0.64695424,0.29406396,9.845133,0.0005193651,-0.0043358652,-0.0005947314,-28800.0,-28164.5,-27517.5,
17.986,-0.68526152,0.236603108,9.696692,-0.004276961,-0.0030035526,-0.0031261258,-28800.0,-28420.5,-27005.5,
18.104,-0.80976002,0.205478492,9.943295,-0.0021452606,0.001526311,-0.004191975,-28800.0,-27652.5,-25981.5,
18.228,-0.57752248,0.0761916,9.778095,0.00065259636,0.007921409,-0.0015273513,-28800.0,-27396.5,-26493.5,
18.344,-0.7786353,0.33476536,9.952871,-0.00081294776,0.0023256988,-6.180722e-05,-28544.0,-27908.5,-26749.5,
18.460,-0.7594817,0.26054512,9.871469,-0.0037440508,0.0059229432,0.00087081176,-28544.0,-27140.5,-27005.5,
18.577,-0.795394836,0.28448712,10.194686,-0.0029446482,0.013517121,0.0006043492,-28544.0,-27908.5,-26237.5,
18.696,-0.7738469,0.25096834,10.118072,-0.009606212,-0.01352882,0.009664073,-28800.0,-28164.5,-26749.5,
18.817,-0.65892524,0.30842918,9.737393,-0.0040104984,-0.0011383183,-0.0016605817,-28544.0,-27140.5,-25981.5,
18.934,0.4663495,0.09055681,8.506774,0.011177868,-0.0744155,0.006200061,-29312.0,-27652.5,-25981.5,
19.047,-0.8289136,-0.029153272,9.940901,-0.0049431176,-0.0024706236,-0.0019270442,-28544.0,-27908.5,-28285.5,
19.164,-0.44823556,0.28688132,9.344745,-0.0049431176,0.026707014,-6.180722e-05,-28032.0,-27140.5,-26749.5,
19.280,-0.412322468,1.0626028,9.555434,-0.00028002262,-0.005668178,-0.012452312,-28800.0,-27652.5,-27005.5,
19.403,-0.69483832,0.3515248,9.794854,-0.005609274,0.00179276984,-0.004191975,-28544.0,-27396.5,-26237.5,
19.519,-0.9773541,0.12886404,9.902594,0.000919044,0.0076549464,0.000337886632,-28800.0,-27396.5,-25981.5,
19.636,-0.49611956,0.341948,9.713451,-0.0082739,-0.000738620736,-0.0001950385,-28544.0,-27652.5,-26237.5,
19.751,-0.69483832,0.27491032,9.79246,-0.0016123354,0.0021924674,-0.0052578252,-28544.0,-27396.5,-26749.5,
19.867,-0.8791918,0.11689302,9.890622,-0.0017455816,-0.0026038588,0.0030025114,-29056.0,-27908.5,-27517.5,
19.991,-0.73553976,0.25575674,9.828373,-0.00520958,0.00725525236,-0.003259357,-28544.0,-27652.5,-27773.5,
20.107,-0.61822384,0.32518858,9.904987,-0.002811417,0.0016595423,-0.002726432,-28288.0,-27140.5,-27517.5,
20.223,-0.7714527,0.28927556,9.902594,-0.0057424904,0.0057897084,-0.0019270442,-29312.0,-27652.5,-26493.5,
20.346,-0.58709924,0.449687068,9.806826,-0.00067971648,-0.005668178,0.00020465534,-28288.0,-28164.5,-26749.5,
20.463,-0.61822384,0.29406396,9.727817,-0.0029446482,-0.0024706236,-0.0011276575,-28544.0,-27652.5,-26493.5,
20.587,-0.54160932,0.30603498,9.653597,-0.0030778944,-0.0014047772,-0.0031261258,-28288.0,-27396.5,-26493.5,
20.704,-0.66610784,0.33237118,9.790066,-0.0064086468,0.0049903208,-0.0013941191,-28544.0,-27140.5,-27005.5,
20.822,-0.67089624,0.27012192,9.825979,0.0011855215,0.001526311,-0.0057907504,-28544.0,-27908.5,-27005.5,
20.938,-0.69483832,0.27491032,9.933718,-0.0054760424,0.0029918552,-0.00339258784,-28032.0,-26884.5,-27261.5,
21.061,-0.68286732,0.27730452,9.842738,-0.008407116,0.010319572,-0.001793813,-28288.0,-27908.5,-27517.5,
21.176,-0.804971636,0.26533352,10.007938,-0.0021452606,-0.0026038588,-0.003259357,-28800.0,-27396.5,-27773.5,
21.295,-0.81215424,0.22942052,9.976813,0.000119671224,0.0076549464,-0.0031261258,-28288.0,-27140.5,-27261.5,
21.413,-0.67807896,0.26533352,9.76373,-0.0045434236,-0.000871852064,-0.0001950385,-28800.0,-27140.5,-27517.5,
21.530,-0.63977164,0.28927556,9.861892,-0.004676655,-0.0062011032,-0.0029928944,-28032.0,-27908.5,-27517.5,
21.652,-0.59188768,0.3443422,9.825979,-0.0057424904,0.0036580116,0.00073758052,-27264.0,-27908.5,-27005.5,
21.769,-0.7906063,0.31561178,9.969631,-0.0016123354,-0.0015380084,-0.0019270442,-27520.0,-28164.5,-26237.5,
21.886,-0.52724416,0.31321758,9.778095,-0.0026781856,-0.00939865,-0.0009944253,-27776.0,-28676.5,-27261.5,
22.001,-0.64456004,0.33715956,9.897805,-0.0053428112,0.00019399822,0.0006043492,-27264.0,-28676.5,-25981.5,
22.118,-0.71399192,0.27491032,9.907382,-0.00520958,-0.00273709,-0.0013941191,-27776.0,-28420.5,-26237.5,
22.238,-0.72596296,0.341948,9.86668,-0.007874206,-0.0030035526,0.0026028176,-27520.0,-28420.5,-27005.5,
22.352,-0.60385864,0.33955376,9.778095,-0.0032111108,0.011651885,-0.0001950385,-27776.0,-28420.5,-27261.5,
22.469,-0.69244416,0.33476536,9.86668,-0.006142199,-0.0028703212,-0.0040587444,-27264.0,-28164.5,-27005.5,
22.585,-0.62061804,0.25575674,9.720634,-0.0038772672,0.001526311,-0.003259357,-28288.0,-28420.5,-26493.5,
22.701,-0.68765576,0.31082338,9.888228,-0.00081294776,0.0012598485,0.0020698932,-27776.0,-28932.5,-25981.5,
22.824,-0.57991668,0.27491032,9.711058,-0.0025449544,-0.0020709336,-0.003925513,-27264.0,-28932.5,-25981.5,
22.940,-0.7546933,0.26533352,9.950478,-0.0060089676,0.0013930798,0.000337886632,-27264.0,-28420.5,-25725.5,
23.057,-0.64456004,0.3587074,9.845133,-0.00347757336,-0.0014047772,-0.0016605817,-27520.0,-29188.5,-27005.5,
23.175,-0.62061804,0.27969872,9.799643,-0.0064086468,0.0021924674,0.000337886632,-27776.0,-28420.5,-27005.5,
23.299,-0.7834237,0.29406396,9.802037,-0.002811417,0.0013930798,-0.0016605817,-27264.0,-28164.5,-27005.5,
23.416,-0.64216584,0.30364078,9.701481,-0.0073412808,0.00059369208,-0.0025932006,-28032.0,-28932.5,-28029.5,
23.533,-0.63737744,0.28927556,9.715846,-0.0014791042,-0.0003389269,-0.00339258784,-27520.0,-28420.5,-27517.5,
23.651,-0.63977164,0.31082338,9.785277,-0.0049431176,0.0033915452,-0.0003282698,-27520.0,-28164.5,-27005.5,
23.768,-0.67329052,0.28209292,9.849921,-0.004676655,0.0019260049,-0.0035258192,-28032.0,-28164.5,-27005.5,
23.892,-0.66610784,0.28209292,9.878652,-0.0044102072,0.0019260049,0.0026028176,-27520.0,-29444.5,-27773.5,
24.010,-0.69004992,0.31561178,9.878652,-0.009472981,0.000460457068,-0.003259357,-27008.0,-28420.5,-27261.5,
24.127,-0.65892524,0.29406396,9.787672,-0.006142199,0.0033915452,0.0020698932,-27520.0,-28676.5,-27517.5,
24.243,-0.66850204,0.27730452,9.88344,-0.0017455816,0.005256787,-0.0015273513,-27520.0,-29188.5,-26749.5,
24.358,-0.61343544,0.26533352,9.811614,-0.007474512,-0.0014047772,0.00286928,-27776.0,-28932.5,-28029.5,
24.479,-0.60385864,0.30364078,9.857103,-0.0030778944,-0.0011383183,-0.0009944253,-27776.0,-28420.5,-27517.5,
24.596,-0.60385864,0.28209292,9.79246,-0.00347757336,-0.0020709336,0.00193666116,-27520.0,-28420.5,-27261.5,
24.715,-0.69004992,0.33476536,9.857103,-0.0012126416,0.0059229432,0.0014037369,-27520.0,-28932.5,-27005.5,
24.832,-0.62780064,0.27969872,9.782884,-0.004276961,-0.004202634,-0.0011276575,-27264.0,-28420.5,-25981.5,
24.948,-0.70202092,0.27969872,9.876257,-0.0045434236,0.001526311,0.00073758052,-27520.0,-28932.5,-27517.5,
25.070,-0.60864704,0.33955376,9.804431,-0.0013458729,6.0766936e-05,-0.0028596632,-27776.0,-28420.5,-26749.5,
25.187,-0.73314552,0.30124656,9.804431,-0.0040104984,0.0027253888,-0.004458438,-27776.0,-28164.5,-25469.5,
25.303,-0.65413684,0.24378572,9.828373,-0.004276961,0.0008601546,-0.001793813,-27776.0,-28164.5,-26493.5,
25.418,-0.68526152,0.28209292,9.782884,-0.0044102072,-0.000738620736,-0.0009944253,-27776.0,-28164.5,-27005.5,
25.541,-0.65653104,0.29166976,9.864286,-0.007607743,-0.0006053895,-0.0029928944,-27520.0,-27652.5,-26493.5,
25.657,-0.55597468,0.3634958,9.794854,-0.007874206,0.00738848368,-0.0031261258,-27264.0,-27908.5,-27005.5,
25.774,-0.65653104,0.30603498,9.849921,-0.00694158636,-0.0028703212,0.00020465534,-27776.0,-27140.5,-26749.5,
25.893,-0.54160932,0.32758278,9.742182,-0.0029446482,-0.0004721582,0.0014037369,-28288.0,-27396.5,-26237.5,
26.010,-0.63737744,0.27251612,9.782884,-0.0053428112,0.0025921612,-0.0011276575,-27520.0,-28164.5,-26493.5,
26.133,-0.61343544,0.29885236,9.701481,-0.0022784918,0.003791239,-0.0015273513,-27520.0,-27908.5,-26493.5,
26.250,-0.65653104,0.25096834,9.871469,-0.007607743,-0.0028703212,-0.004458438,-27520.0,-28420.5,-26749.5,
26.366,-0.67089624,0.27730452,9.852315,-0.00347757336,0.0063226336,-0.0019270442,-27264.0,-28164.5,-26749.5,
26.484,-0.67089624,0.3706784,9.816402,-0.0005464852,0.0067223272,-0.003259357,-27776.0,-28164.5,-26493.5,
26.599,-0.60385864,0.25815094,9.849921,-0.0054760424,-0.0022041648,-0.003259357,-27264.0,-27908.5,-26237.5,
26.721,-0.68286732,0.27730452,9.780489,-0.001878798,0.00179276984,-0.0008611949,-27008.0,-27908.5,-26493.5,
26.838,-0.67329052,0.24617992,9.804431,-0.007874206,0.0011266135,-0.0049913632,-27264.0,-28164.5,-26237.5,
26.954,-0.7762411,0.2174495,9.766124,-0.00720804936,-0.0028703212,0.001004043,-27264.0,-28420.5,-26749.5,
27.070,-0.72356872,0.30364078,9.890622,-0.0014791042,-0.0023373962,-0.0020602756,-27008.0,-28420.5,-27005.5,
27.187,-0.66131944,0.25336254,9.85471,-0.0045434236,-0.000205695632,-0.0013941191,-27008.0,-28420.5,-27005.5,
27.311,-0.69483832,0.27730452,9.988785,-0.004809886,0.01218481,-0.0008611949,-27008.0,-28420.5,-27005.5,
27.426,-0.65892524,0.28927556,9.825979,-0.0021452606,0.0068555624,-0.0016605817,-27520.0,-28420.5,-25981.5,
27.544,-0.63737744,0.27730452,9.828373,-0.004809886,0.0011266135,0.000337886632,-27264.0,-28420.5,-28029.5,
27.662,-0.65892524,0.30603498,9.859498,-0.008140668,-0.0016712397,-0.0029928944,-27520.0,-28932.5,-27005.5,
27.785,-0.68047316,0.30124656,9.74697,-0.009073272,0.006056171,-0.0048581316,-27520.0,-28164.5,-27005.5,
27.900,-0.63977164,0.341948,9.799643,-0.0026781856,-0.0004721582,-0.0008611949,-27520.0,-28932.5,-27005.5,
28.015,-0.70441512,0.28448712,9.725423,-0.009073272,0.0028586238,-0.0019270442,-27264.0,-28420.5,-25981.5,
28.132,-0.66371364,0.30124656,9.864286,-0.0073412808,0.0016595423,-0.0019270442,-27776.0,-28676.5,-27005.5,
28.249,-0.68286732,0.24857412,9.840344,-0.0054760424,-0.0016712397,-0.0019270442,-27264.0,-28676.5,-25981.5,
28.372,-0.72596296,0.236603108,9.842738,-0.0013458729,-0.0028703212,-0.0008611949,-27264.0,-28420.5,-26237.5,
28.491,-0.70202092,0.29166976,9.768518,-0.008806825,0.0063226336,0.00073758052,-27520.0,-28676.5,-26237.5,
28.607,-0.71638616,0.28927556,9.890622,-0.0030778944,-0.000738620736,-0.0048581316,-27520.0,-27908.5,-25725.5,
28.725,-0.56076308,0.377861032,9.574588,-0.00414373,-0.007533416,0.0006043492,-28288.0,-28420.5,-26749.5,
28.841,-0.68526152,0.26533352,9.916959,-0.0044102072,0.005123552,-0.0019270442,-27520.0,-28420.5,-25981.5,
28.963,-0.68286732,0.26772772,9.814008,-0.007607743,-0.0020709336,-0.0020602756,-28032.0,-28932.5,-26493.5,
29.080,-0.73793392,0.25096834,9.950478,-0.0025449544,0.0020592324,-0.0040587444,-27776.0,-28676.5,-25981.5,
29.197,-0.69483832,0.27012192,9.869075,0.00065259636,0.0011266135,-0.0025932006,-27776.0,-29444.5,-27005.5,
29.315,-0.65174264,0.29885236,9.852315,-0.0044102072,0.0008601546,-0.0015273513,-28032.0,-29188.5,-26493.5,
29.432,-0.63258904,0.24857412,9.797249,-0.00347757336,0.0016595423,-0.0021935068,-27776.0,-28676.5,-25725.5,
29.556,-0.65653104,0.29645816,9.766124,-0.003344342,0.0031250828,-0.002326738,-28032.0,-28932.5,-25981.5,
29.672,-0.70920352,0.30842918,9.885834,-0.006142199,0.0023256988,-0.0015273513,-27520.0,-28420.5,-26493.5,
29.789,-0.71878032,0.24857412,9.840344,-0.0032111108,0.0019260049,-0.001793813,-27520.0,-28676.5,-26493.5,
29.906,-0.7618759,0.32279438,9.876257,-0.0049431176,-0.000871852064,-0.0021935068,-27776.0,-28932.5,-25725.5,
30.029,-0.62061804,0.28209292,9.778095,-0.008540362,0.0003272295,-0.0019270442,-27776.0,-28676.5,-26749.5,
30.145,-0.63977164,0.27730452,9.876257,-0.002411738,0.0024589264,-0.0008611949,-28032.0,-28420.5,-26493.5,
30.261,-0.61822384,0.27491032,9.816402,-0.002811417,-0.0028703212,-0.0021935068,-28288.0,-29188.5,-27261.5,
30.377,-0.71159776,0.28688132,9.952871,-0.0038772672,0.004857093,0.0012705056,-28032.0,-29188.5,-27005.5,
30.493,-0.65892524,0.3491306,9.794854,-0.002811417,0.00072692332,-0.0031261258,-27776.0,-28676.5,-27517.5,
30.615,-0.71638616,0.27491032,9.881045,-0.0062754304,0.0009933859,-0.0008611949,-27520.0,-28676.5,-26493.5,
30.731,-0.60864704,0.30603498,9.811614,-0.004809886,0.003791239,0.00073758052,-27776.0,-29188.5,-25981.5,
30.847,-0.66371364,0.28688132,9.802037,0.000919044,0.006056171,0.0030025114,-27776.0,-29188.5,-26493.5,
30.962,-0.65653104,0.29166976,9.895411,-0.00520958,0.0013930798,-0.0020602756,-27520.0,-28932.5,-26749.5,
31.078,-0.67089624,0.30124656,9.849921,-0.00361080468,0.0035247804,-0.002726432,-27264.0,-28420.5,-26493.5,
31.202,-0.61582964,0.30603498,9.859498,-0.014002845,0.0020592324,-6.180722e-05,-27520.0,-28676.5,-26493.5,
31.319,-0.54400352,0.33955376,9.806826,-0.00067971648,-0.0012715459,0.001004043,-28032.0,-28932.5,-26493.5,
31.435,-0.70202092,0.24857412,9.814008,-0.0022784918,0.001526311,0.0012705056,-28032.0,-28676.5,-25981.5,
31.552,-0.63019484,0.29406396,9.761335,-0.0044102072,-0.0020709336,-0.0005947314,-27776.0,-28932.5,-27005.5,
31.675,-0.65653104,0.25336254,9.76373,-0.0029446482,-0.0026038588,0.00087081176,-28032.0,-28932.5,-25725.5,
31.798,-0.60385864,0.30842918,9.888228,-0.0005464852,-0.00180447468,0.0018034298,-28032.0,-29444.5,-25725.5,
31.916,-0.72356872,0.30842918,9.928929,-0.00081294776,0.004723858,-0.0021935068,-27520.0,-29188.5,-26493.5,
32.033,-0.59188768,0.36589,9.85471,-0.0025449544,-0.0039361716,0.005267442,-27776.0,-29188.5,-25725.5,
32.147,-0.58470508,0.25096834,9.873863,-0.00028002262,-0.010997426,0.00193666116,-27776.0,-29444.5,-25469.5,
32.272,-0.66850204,0.29885236,9.787672,-0.0044102072,0.0013930798,-0.0009944253,-27776.0,-29188.5,-25981.5,
32.389,-0.56076308,0.30124656,9.758942,-0.006541893,0.0021924674,-0.0020602756,-28032.0,-29188.5,-27005.5,
32.506,-0.74032816,0.2174495,9.773307,-0.00361080468,-0.0019377023,-0.0040587444,-28032.0,-29700.5,-26749.5,
32.625,-0.74272232,0.22942052,9.928929,-0.00094617908,0.008454334,-0.003259357,-27520.0,-28932.5,-26749.5,
32.740,-0.62301224,0.24857412,9.790066,-0.002811417,0.0020592324,-0.0028596632,-27776.0,-29700.5,-26237.5,
32.862,-0.65174264,0.3682842,9.86668,-0.006142199,0.003924474,-0.0012608878,-28288.0,-29444.5,-27261.5,
32.977,-0.66850204,0.3515248,9.86668,-0.0037440508,0.011785116,0.0022031236,-28288.0,-28932.5,-27261.5,
33.092,-0.67089624,0.30364078,9.770912,-0.001878798,0.0027253888,-0.0076559876,-27520.0,-29956.5,-26749.5,
33.210,-0.39795728,0.4999653,9.972025,-0.00774095936,0.0077881776,-0.0043252064,-26752.0,-28676.5,-27261.5,
33.327,-0.80257748,0.18871908,9.751759,-0.0010794252,0.0053900144,-0.00046150108,-26752.0,-28932.5,-25981.5,
33.451,-0.80257748,0.238997316,9.933718,-0.0029446482,0.0020592324,-0.005124594,-27520.0,-29188.5,-27261.5,
33.568,-0.80257748,0.195901692,9.88344,-1.3560057e-05,0.0020592324,-0.004191975,-27520.0,-29188.5,-26237.5,
33.685,-0.67089624,0.3634958,9.847527,-0.0020120292,0.001526311,0.0011372734,-27264.0,-28676.5,-25213.5,
33.801,-0.69244416,0.27012192,9.876257,0.0002528876,-0.000871852064,-0.0040587444,-27776.0,-29188.5,-26493.5,
33.918,-0.68286732,0.32997698,9.873863,-0.007474512,0.0027253888,-0.0001950385,-27776.0,-29188.5,-26237.5,
34.040,-0.63258904,0.25575674,9.847527,-0.0045434236,-0.00766664368,-0.0028596632,-27776.0,-28932.5,-25469.5,
34.158,-0.7930005,0.054643784,9.79246,-0.0004132688,-0.0043358652,0.00047111884,-28032.0,-29700.5,-25725.5,
34.273,-0.70680936,0.241391508,9.758942,-0.0062754304,0.005123552,-0.003259357,-27520.0,-28932.5,-26493.5,
34.390,-0.71878032,0.3443422,9.897805,-0.0032111108,0.006189406,0.0014037369,-27776.0,-29700.5,-27005.5,
34.505,-0.7642701,0.22942052,9.845133,-0.00081294776,-0.0024706236,-0.0011276575,-27776.0,-28676.5,-25981.5,
34.628,-0.65413684,0.26533352,9.900199,-0.0044102072,0.003791239,-0.002326738,-28544.0,-27908.5,-27517.5,
34.743,-0.51287896,0.3467364,9.466848,-0.006675124,0.009253722,-0.0029928944,-28032.0,-27908.5,-26237.5,
34.858,-0.65413684,0.27012192,9.924141,-0.00014679134,-0.0039361716,-0.0031261258,-27776.0,-27908.5,-27005.5,
34.975,-0.74272232,0.25336254,9.885834,-0.0013458729,0.00072692332,0.00047111884,-27776.0,-28676.5,-27261.5,
35.098,-0.59667608,0.3443422,9.782884,-0.0016123354,0.001526311,-0.0036590504,-27520.0,-28420.5,-25725.5,
35.214,-0.51766736,0.5239073,9.979208,0.0011855215,-0.0071337184,0.011262848,-27776.0,-28164.5,-26493.5,
35.330,-0.65413684,0.27969872,9.847527,-0.00081294776,0.0024589264,0.0015369672,-28032.0,-28164.5,-27261.5,
35.447,-0.69244416,0.31082338,9.835556,-0.0026781856,0.0033915452,-0.0003282698,-27520.0,-28420.5,-27517.5,
35.563,-0.54879192,0.25096834,9.91217,-0.0049431176,0.0008601546,0.005134211,-27520.0,-27652.5,-27261.5,
35.684,-0.64456004,0.22942052,9.849921,-0.003344342,0.0027253888,-0.000727963636,-28032.0,-29188.5,-27005.5,
35.802,-0.53682092,0.3634958,9.74697,-0.001878798,0.008720797,-0.006190444,-27008.0,-28164.5,-26493.5,
35.915,-0.56315724,0.26054512,9.735,-0.009606212,0.017380826,-0.0048581316,-27264.0,-27396.5,-26493.5,
36.031,-0.56555148,0.32279438,9.785277,-0.004809886,0.0032583176,0.00020465534,-28032.0,-25092.5,-27005.5,
36.148,-0.51048476,0.375466832,9.751759,0.003317222,-0.00180447468,-0.0020602756,-30848.0,-25348.5,-27517.5,
36.272,-1.2215626,0.14322924,9.696692,0.006115079,-0.032980584,-0.015916326,-32128.0,-26628.5,-27517.5,
36.388,-1.2574756,-0.1823822,10.149197,0.17478582,-0.391372616,-0.6616882,-30592.0,-27908.5,-26749.5,
36.506,-0.232757392,0.57418556,11.822743,0.5858042,-0.31809544,-1.5374169,-23168.0,-27652.5,-23677.5,
36.624,1.69696932,2.1184456,11.085329,0.08618705,0.060281284,-1.6144247,-14976.0,-28164.5,-21373.5,
36.742,-0.28542984,0.27730452,11.805984,-0.31577158,0.2765156,-1.6518628,-11392.0,-20740.5,-22141.5,
36.864,-1.0396032,-0.6564341,11.205039,0.017306492,0.14248496,-1.4721338,-9856.0,-9732.5,-23677.5,
36.981,-1.0324206,0.3706784,10.596911,0.15853162,-0.0910694,-1.1575748,-4480.0,-3844.5,-23933.5,
37.096,-1.202409,0.5430609,10.21384,0.0073141452,-0.16128226,-1.0894936,2176.0,-2307.5,-24189.5,
37.212,-0.8911628,0.2198437,7.812455,0.188108944,0.028705484,-1.1621046,8576.0,-259.5,-23677.5,
37.329,-1.2167742,0.29166976,6.6177488,0.4092728,-0.21550738,-1.1657019,14208.0,-2307.5,-22397.5,
37.467,-0.33331382,0.7585391,8.106942,0.5618226,-0.818511936,-0.98957024,25728.0,-8963.5,-20093.5,
37.583,0.70576968,1.3977909,9.6488088,0.6561503,-0.5337968,-0.95679532,-24960.0,-19459.5,-20349.5,
37.699,1.2420709,2.0178892,8.497197,0.27843972,-0.217106136,-0.6666177,-15232.0,-28675.5,-20349.5,
37.816,1.8166792,0.8543072,8.96646,-1.3560057e-05,0.07920012,-0.444654468,-11392.0,32252.5,-21117.5,
37.932,0.34424524,2.774457,10.474808,-0.12804876,0.217627384,-0.2649255,-12160.0,31228.5,-20093.5,
38.056,0.890123264,2.3315296,10.177927,0.169456568,-0.194723316,0.11451707,-13184.0,31996.5,-20093.5,
38.177,0.8661812,2.384202,9.435724,0.195436668,-0.13090554,0.121844776,-10880.0,29436.5,-20349.5,
38.295,1.0146217,2.4440572,9.897805,0.185710784,-0.07268349,0.09573146,-9344.0,27132.5,-21373.5,
38.411,1.0792651,2.8510714,9.629655,0.23767098,-0.08587338,0.08853697,-8064.0,24572.5,-21885.5,
38.527,1.3737519,2.939657,9.2394,0.18184708,-0.13263754,0.06708674,-6272.0,21500.5,-21629.5,
38.642,1.7616126,3.1695004,9.157997,0.0578088,-0.075214888,0.10452472,-5248.0,19452.5,-23165.5,
38.763,1.8525922,3.0138772,9.385446,0.06487005,-0.0714844,0.04283865,-4224.0,19196.5,-23165.5,
38.877,1.68499824,3.3035756,9.157997,0.0535454,-0.02218885,-0.018181256,-3200.0,17660.5,-23933.5,
38.993,1.9052648,3.5669376,8.949701,0.000919044,0.019512526,-0.011519694,-2944.0,16380.5,-24445.5,
39.109,2.0249748,3.62200416,9.337562,-0.06982674,0.04749109,-0.06494542,-3200.0,16636.5,-24957.5,
39.224,1.7807662,3.39934368,9.265736,-0.013603151,0.01551559,-0.13076166,-3968.0,17660.5,-23677.5,
39.347,1.73288232,3.2939988,9.390234,-0.04171495,-0.0083328,-0.14821495,-4224.0,17660.5,-23677.5,
39.463,1.9004762,3.4113148,9.304043,-0.020531178,-0.078012732,-0.12063608,-4736.0,17916.5,-23421.5,
39.580,1.68020984,3.2580858,9.323196,0.028231472,-0.088538008,-0.22802046,-3200.0,16636.5,-23165.5,
39.698,1.4264244,3.535813,9.265736,0.024767444,-0.08880447,-0.25799748,-2432.0,15612.5,-23677.5,
39.813,1.3234737,3.3394884,9.225035,0.0077138548,-0.04590401,-0.16793316,-1408.0,14588.5,-24189.5,
39.935,1.3689635,3.607639,9.395022,-0.01346992,-0.04390554,-0.08799443,-640.0,13052.5,-25981.5,
40.049,1.4431839,3.6172158,9.34235,0.0030507594,-0.016326677,0.009530841,-384.0,13052.5,-25469.5,
40.167,1.3426273,3.4927176,9.181939,0.014908344,-0.005002022,0.063223032,-384.0,13308.5,-25725.5,
40.283,1.4599433,3.4687756,9.227428,-0.00014679134,0.056950504,0.10066101,384.0,13309.5,-24957.5,
40.402,1.3881172,3.5046884,9.272919,-0.004676655,0.0935891,0.18259822,-1408.0,13564.5,-25981.5,
40.522,1.3761461,3.4568044,9.34235,-0.015468374,0.095321108,0.24828122,-1664.0,15100.5,-24189.5,
40.639,1.5317693,3.2916044,9.502762,-0.02399519,0.112774392,0.2554757,-2944.0,15868.5,-23421.5,
40.756,1.4886737,3.236538,9.536281,0.009312615,0.027772864,0.23375902,-3712.0,17660.5,-22653.5,
40.872,1.6347198,3.1742888,9.198698,0.009046167,0.0552185,0.17233942,-4736.0,19196.5,-22909.5,
40.987,1.72809392,3.3275176,9.205881,-0.052373424,0.088126616,0.11518323,-5504.0,19964.5,-21885.5,
41.105,1.6323256,3.2221728,9.488397,-0.046511264,0.061213904,0.09946193,-6016.0,20732.5,-22397.5,
41.227,2.135108,3.2197786,9.076593,-0.024128408,-0.007533416,0.06362272,-6784.0,21500.5,-22909.5,
41.342,1.3115027,3.0402134,9.768518,-0.02652657,0.08346352,0.0453700436,-7808.0,22780.5,-22653.5,
41.459,1.4407896,3.0857032,9.505156,0.012376934,-0.016992834,0.043904504,-8064.0,22780.5,-21885.5,
41.575,1.4767027,3.0043004,9.423753,0.016373872,0.010985728,0.030714612,-7552.0,22780.5,-22141.5,
41.692,1.814285,2.999512,9.162786,-0.050641432,0.026840246,-0.0076559876,-8576.0,23036.5,-22141.5,
41.814,1.7687952,3.0809148,9.395022,-0.06862764,0.023509464,-0.07880147,-8832.0,23292.5,-21117.5,
41.929,1.6754215,2.8630424,9.464455,-0.058768524,-0.019524224,-0.18658554,-9600.0,24060.5,-21629.5,
42.046,1.73288232,2.8798018,9.299254,-0.05357252,0.017514058,-0.30196378,-9088.0,23548.5,-22653.5,
42.163,1.4144534,2.8151584,9.469243,-0.08341633,0.027906096,-0.26892244,-9344.0,23292.5,-21373.5,
42.279,1.5006447,2.7002368,9.67275,-0.05250667,0.05082187,-0.34539716,-9600.0,23292.5,-21117.5,
42.399,1.3162911,2.9923294,9.603318,0.083522424,0.0220439216,-0.5004783,-10112.0,21500.5,-20093.5,
42.516,0.7536537,3.0210598,9.603318,0.050880776,-0.16567889,-0.337936232,-9856.0,19196.5,-21885.5,
42.634,0.8422392,2.9540222,9.806826,0.084987976,-0.190726368,-0.35778768,-7808.0,16124.5,-22909.5,
42.750,0.36579304,3.1024626,9.375869,0.200366224,-0.1021276,-0.4862226,-4992.0,12284.5,-23421.5,
42.866,0.169468492,3.9093086,9.34235,0.052213088,0.057749892,-0.3792379,-4224.0,7676.5,-24701.5,
42.996,0.66267408,3.4663812,9.586558,0.065136516,-0.13556864,-0.107446184,-5760.0,4604.5,-24189.5,
43.113,0.34185104,3.61242736,8.355939,0.0532789368,-0.29304796,-0.10171724,-2944.0,3836.5,-25469.5,
43.231,0.938007232,3.0138772,9.117295,-0.30471344,-0.14715976,-0.22628846,128.0,3325.5,-27773.5,
43.349,1.0553231,3.2389322,9.629655,-0.15003194,-0.008732494,-0.5040756,384.0,5629.5,-28797.5,
43.465,1.1941868,3.2149902,9.701481,-0.066096248,-0.19951964,-0.4451874,384.0,5373.5,-27773.5,
43.581,1.5078273,2.882196,9.593741,-0.03678538,-0.24601736,-0.4232042,3200.0,4093.5,-29309.5,
43.703,1.3761461,2.4584224,9.263342,0.0067812352,-0.16807706,-0.597071,4480.0,1789.5,-30845.5,
43.819,1.7711894,2.9444454,9.483608,-0.099270832,-0.22270186,-0.4389255,6016.0,-1026.5,-31870.5,
43.935,1.8837168,2.9588106,9.366292,-0.12032138,-0.07068502,-0.37604036,7040.0,-2562.5,32385.5,
44.051,0.8709696,3.1096452,10.00315,0.06993284,-0.0010050833,-0.46104188,6272.0,-4354.5,32641.5,
44.167,0.68182768,3.5142652,9.174756,0.11083483,-0.12144613,-0.16819964,6272.0,-7682.5,31361.5,
44.289,0.9978623,3.3921612,9.318408,0.026366218,-0.030315958,-0.003925513,7040.0,-9986.5,30081.5,
44.405,1.0265927,3.2939988,9.445301,0.022768974,0.041895376,-0.06707712,7552.0,-10498.5,30337.5,
44.522,0.890123264,3.8183288,9.421359,0.23367404,0.10997654,-0.1471491,7040.0,-11778.5,30081.5,
44.639,0.6243668,3.4783524,8.98322,0.23473988,0.06467792,0.1258417,5248.0,-15874.5,28801.5,
44.753,0.023422182,4.239708,9.31362,0.12282564,0.0317698,0.41561968,5760.0,-18946.5,29313.5,
44.873,0.94040148,4.170276,9.38784,0.09990987,0.21696124,0.2727958,6528.0,-18434.5,28545.5,
44.987,0.4400133,4.165488,8.401429,0.11296653,0.15114498,0.14702546,4992.0,-17666.5,29569.5,
45.103,1.5389519,5.1734468,8.087789,-0.19959394,-0.0953328,0.34007756,4480.0,-17922.5,29825.5,
45.218,2.1039834,4.270833,10.232993,-0.195863468,-0.2875855,0.20058444,7040.0,-13314.5,29569.5,
45.336,0.923642064,2.9420512,9.928929,-0.0054760424,-0.18326542,-0.14661618,10624.0,-10754.5,29313.5,
45.455,1.4671259,2.7792454,8.923365,-0.15282978,-0.31303264,-0.007389525,12416.0,-10498.5,26497.5,
45.578,2.3769224,3.0617612,9.2106696,-0.20812078,-0.11305256,-0.05841709,15744.0,-9218.5,24449.5,
45.695,1.69696932,2.9827526,9.785277,-0.23543314,0.061347136,-0.020179724,16000.0,-6146.5,25473.5,
45.813,1.9723024,2.9683874,9.411782,-0.10486655,0.030837182,0.210576784,16000.0,-3586.5,26497.5,
45.932,2.6259194,2.6643238,8.700705,0.007047698,0.124232284,0.202582916,14976.0,-2.5,27265.5,
46.051,2.7121108,3.61961,8.683945,0.31601096,0.24120932,0.066287348,13696.0,-2.5,27265.5,
46.172,1.5150099,3.296393,9.684721,0.6609466,0.11770395,0.18925978,11648.0,-4866.5,28545.5,
46.288,1.1893984,4.5294064,9.593741,-0.18174096,0.23161666,0.51034708,10880.0,-10242.5,27521.5,
46.405,1.0218043,2.714602,9.2394,0.13335091,0.12596428,0.13663344,10368.0,-5890.5,29313.5,
46.521,0.5621176,4.2325252,9.138844,0.0495484616,0.34313124,0.0063332924,8832.0,-6914.5,30337.5,
46.638,0.38255244,3.5645436,9.335168,-0.07195844,0.1780577,0.08733789,5248.0,-7170.5,-32638.5,
46.758,0.794355136,3.7991752,9.031104,-0.09420805,0.11264116,0.21683864,3200.0,-6402.5,-31870.5,
46.874,1.6730273,3.7153784,9.608107,-0.2786001,0.032036264,0.16194738,2688.0,-2818.5,-30846.5,
46.991,1.3426273,3.4903232,9.881045,0.055277408,-0.1554201,-0.070541132,2432.0,1533.5,-29053.5,
47.106,1.3402331,3.6172158,9.351927,0.14027894,-0.2570755,-0.09225782,4480.0,-2.5,-30078.5,
47.224,1.5389519,3.61242736,9.031104,0.069399912,-0.20178456,-0.06467896,6784.0,-2306.5,32129.5,
47.341,1.6179604,3.75368536,9.016739,0.0443524432,-0.09506634,-0.09838646,9344.0,-3586.5,30337.5,
47.463,1.6203546,3.81114632,9.105324,0.033427476,-0.029250108,-0.019513568,10880.0,-5378.5,29569.5,
47.581,1.4407896,3.7058016,9.021527,-0.002411738,-0.0048687904,0.09559823,11392.0,-5890.5,29313.5,
47.697,1.8908994,3.8518476,9.028709,-0.048376516,0.08652784,0.07214952,11904.0,-5634.5,29313.5,
47.812,1.826256,4.0314124,9.174756,-0.021730244,0.058948976,0.072282752,10368.0,-3074.5,30593.5,
47.928,1.8406212,3.8374824,9.284889,0.008380011,0.024442082,0.06602089,10112.0,-3330.5,30593.5,
48.050,1.70415184,3.8039636,9.023921,0.06034019,0.0021924674,0.09013574,10880.0,-3074.5,31361.5,
48.167,1.5054331,3.6794652,9.098142,0.021703124,0.031103644,0.17646958,10368.0,-3330.5,31105.5,
48.284,0.899700032,4.333082,8.803655,0.086853208,0.06907455,0.37498416,10112.0,-2306.5,30593.5,
48.400,0.79196092,4.048172,9.842738,0.065269748,0.5323196,0.79119852,9600.0,-770.5,31617.5,
48.515,1.2851665,4.048172,9.476425,0.22421462,0.5047407,1.592318,4992.0,3837.5,-30589.5,
48.636,1.0648999,2.2357616,8.317632,0.56541984,0.694062336,2.0414402,-128.0,9468.5,-26749.5,
48.753,0.7129523,4.134363,9.711058,0.23060972,1.0295385,2.469246,-7552.0,11772.5,-22141.5,
48.868,1.433607,3.1742888,9.9672368,0.37276744,0.45118176,1.778975,-18816.0,17148.5,-18813.5,
48.984,2.8485802,3.99071136,7.81724336,0.7949773,0.46756916,1.5207729,-24448.0,13308.5,-17021.5,
49.105,1.3905114,4.3258996,8.363122,-0.07235812,0.65049564,1.5454205,-28288.0,6140.5,-16509.5,
49.222,3.2340468,2.453634,9.677539,-0.19199978,0.851541664,1.2291296,29312.0,9724.5,-15229.5,
49.344,4.3569276,2.324347,10.410164,0.0010522902,0.41747428,0.6129351,19584.0,13308.5,-13181.5,
49.461,3.925971,1.922121,9.95766,0.17918246,0.031903032,0.290782,15744.0,12028.5,-13437.5,
49.575,2.7192934,2.951628,9.153209,-0.24795688,0.22082492,0.16914186,14464.0,10236.5,-13437.5,
49.692,1.4982505,2.099292,8.650426,0.02183637,0.184053108,0.47131036,11904.0,14076.5,-13181.5,
49.809,1.742459,3.8183288,8.585782,0.20516256,0.38896276,1.0170255,10112.0,12284.5,-13693.5,
49.932,0.938007232,3.6842536,10.199474,0.17571844,0.7089842,1.4311082,4992.0,5116.5,-14973.5,
50.050,0.17186272,3.382584,9.43333,0.21622074,0.62118476,1.6677269,-896.0,-1284.5,-17790.5,
50.166,1.3306563,3.985923,9.339956,0.222749068,0.73922768,1.5440884,-4480.0,-9732.5,-20862.5,
50.282,0.8709696,3.5142652,9.289678,0.30695122,0.2890393,1.4071267,-5248.0,-19972.5,-24190.5,
50.398,1.8286502,2.987541,9.931324,0.17265412,0.56203016,1.3237239,-2176.0,-29188.5,-27262.5,
50.514,1.625143,2.7840338,9.574588,0.13548261,0.28610826,1.1032261,128.0,28668.5,-31614.5,
50.637,1.9028706,3.0186656,9.3303792,0.08565413,0.42693364,0.84755532,2944.0,23292.5,31617.5,
50.754,2.0177922,2.7098136,9.339956,0.044752136,0.19977438,0.6871449,4736.0,19964.5,29569.5,
50.870,1.886111,2.7576976,9.241794,0.039556116,0.27478358,0.48463348,7040.0,16892.5,28801.5,
50.985,1.955543,3.2269612,9.019133,-0.04611157,0.20203932,0.33035168,7552.0,15356.5,28289.5,
51.100,1.6730273,3.2652684,9.3064376,-0.07875322,0.19844207,0.26879886,7808.0,15100.5,27009.5,
51.224,1.5102215,3.1144336,9.869075,-0.048642964,0.14141912,0.15448642,6784.0,15612.5,27265.5,
51.341,1.682604,3.4903232,9.775701,-0.022529646,-0.05123326,0.08120925,7296.0,15868.5,28033.5,
51.458,1.71612284,3.0210598,9.663174,0.03982258,-0.07747982,-0.05655185,8064.0,16124.5,28545.5,
51.574,1.8908994,3.1910482,9.287284,0.0025178344,-0.12610922,-0.13289336,8576.0,15868.5,27009.5,
51.691,1.9172358,3.131193,9.318408,-0.088878792,-0.08240938,-0.2605289,8832.0,16636.5,28545.5,
51.805,1.7113345,3.1168278,9.344745,-0.029457658,-0.11811535,-0.31928384,7296.0,17660.5,28033.5,
51.930,2.099195,2.9851468,9.517127,-0.07302429,-0.12677537,-0.343531932,7040.0,18684.5,29569.5,
52.046,1.9339952,2.8869844,9.86668,-0.041048796,-0.3788489,-0.59067596,6016.0,20732.5,30337.5,
52.162,2.6522556,2.5470078,9.064623,-0.02546072,-0.54538784,-1.0451276,6016.0,23292.5,32129.5,
52.278,1.9339952,2.2740688,9.198698,-0.15016516,-0.487565568,-1.3119897,4992.0,27132.5,-31358.5,
52.395,2.597189,3.0809148,9.620077,-0.25701666,-0.5202072,-1.3394354,3456.0,32764.5,-28030.5,
52.516,2.4439602,2.5877092,9.447695,-0.37052964,-0.45066052,-1.2809468,1664.0,-23299.5,-25214.5,
52.633,2.4200182,2.4153268,9.873863,0.027165622,-0.40269728,-1.5175656,384.0,-15107.5,-21374.5,
52.750,1.5916243,3.1790772,9.74697,-0.09660621,-0.5297999,-1.4173757,640.0,-9987.5,-19582.5,
52.865,0.38973504,3.686648,9.22264,-0.06836118,-0.68581368,-1.3698121,3200.0,-4355.5,-18046.5,
52.980,1.0553231,4.297169,9.469243,-0.1942647,-0.37112148,-1.4260358,7808.0,-771.5,-16254.5,
53.102,0.5501466,3.3969496,8.971249,-0.1712157,-0.41295612,-1.4779959,9600.0,5884.5,-15229.5,
53.218,0.51183932,3.961981,8.262566,-0.13377772,-0.455057136,-1.5368841,13696.0,10748.5,-13437.5,
53.335,0.6291552,4.333082,8.501986,-0.32669652,-0.59455024,-1.3883312,17792.0,14588.5,-13181.5,
53.451,0.952372432,3.0282424,10.6759208,-0.35187728,-0.56657168,-1.5468764,25728.0,20732.5,-14205.5,
53.570,0.93082468,2.3267412,10.501143,-0.06702888,-0.46451652,-1.5363512,32128.0,23036.5,-14461.5,
53.687,2.3266442,2.4272978,8.990402,-0.13697528,-0.513146,-1.2650924,-26752.0,22268.5,-16509.5,
53.808,2.48945,2.1950602,9.150814,-0.1882693,-0.400832,-1.0425962,-19072.0,21500.5,-17789.5,
53.921,1.7448532,2.7792454,9.466848,0.216620432,-0.445198036,-0.98277544,-13440.0,19196.5,-19837.5,
54.040,0.760836336,6.1478868,8.513956,-0.372394836,-0.33528228,-0.85593928,-8320.0,15100.5,-22141.5,
54.158,0.7153465,4.0433836,9.162786,0.09311508,-0.4936942,-0.5824156,-3456.0,14844.5,-23933.5,
54.272,1.2827723,5.3458296,8.985614,-0.062365784,-0.24948134,-0.5171323,1664.0,11261.5,-27773.5,
54.400,1.0912361,3.9691636,8.947307,0.000119671224,-0.253878,-0.47636348,4992.0,9213.5,-28797.5,
54.517,1.7759778,3.95240416,9.2106696,-0.0414484736,-0.3298198,-0.5032762,8064.0,5885.5,-31357.5,
54.635,2.0441284,3.3514596,9.002374,-0.06702888,-0.14662683,-0.5150006,10624.0,3069.5,31362.5,
54.750,1.9890618,3.5190536,9.325591,-0.06183286,-0.21803876,-0.5036759,11392.0,1277.5,30850.5,
54.865,2.123137,3.39934368,8.992797,-0.092476056,-0.16461304,-0.34659628,13184.0,-1026.5,29569.5,
54.988,2.0297632,3.73453168,9.095747,-0.08235048,-0.1652792,-0.26892244,13952.0,-2562.5,27521.5,
55.105,2.111166,3.736926,9.213063,-0.04171495,-0.14636037,-0.216562576,14720.0,-3074.5,27265.5,
55.221,2.015398,4.060143,9.028709,-0.00720804936,-0.1021276,-0.15554267,17024.0,-3842.5,25729.5,
55.336,1.9603314,3.8183288,9.112507,0.0406219636,-0.050300644,-0.028440062,16768.0,-4610.5,25729.5,
55.454,2.147079,4.0529604,8.844357,0.10270772,-0.0192577692,0.101327168,17792.0,-6146.5,24193.5,
55.578,2.1782038,3.9643752,8.750982,0.023701594,0.078933656,0.2047146,18560.0,-5634.5,24193.5,
55.694,2.3984704,3.83508832,8.997585,-0.018799156,0.13475755,0.22429958,18048.0,-4610.5,24449.5,
55.812,2.1422906,3.598062,9.225035,0.0045163036,0.12836244,0.1706074,16768.0,-2562.5,26753.5,
55.930,2.2236936,3.7560796,9.2346116,0.012643397,0.10224913,0.115582904,16000.0,-1282.5,27777.5,
56.049,2.2811544,3.856636,8.999979,0.0022513718,0.06787547,0.10292595,14208.0,-1794.5,28033.5,
56.165,2.1877806,3.674677,9.162786,-0.008007437,0.03669936,0.07188307,13952.0,-1282.5,28545.5,
56.285,2.135108,3.701013,9.095747,0.011311084,0.040962756,0.03164723,13440.0,-1026.5,28801.5,
56.400,2.2332704,3.7417144,9.043075,-0.008407116,0.0008601546,0.0205890352,13440.0,-770.5,28289.5,
56.517,2.264395,3.83029984,8.942518,-0.006675124,0.0055232496,0.00939761,13440.0,253.5,29058.5,
56.633,2.1542618,3.880578,9.141237,-0.010405585,0.011385422,-0.0015273513,13696.0,253.5,28802.5,
56.750,2.099195,3.880578,9.129266,0.008513242,0.014050046,-0.025508974,13184.0,-770.5,29313.5,
56.871,2.015398,3.8398766,9.047863,-0.010405585,0.0043241644,0.0205890352,13184.0,-1282.5,29569.5,
56.990,2.0680704,3.6842536,9.186728,-0.004809886,0.01857991,0.041906036,12672.0,-514.5,28801.5,
57.105,2.0465226,3.607639,9.217852,0.0155745,0.017913754,0.027517058,12928.0,509.5,28802.5,
57.220,2.192569,3.6722828,9.150814,-0.019065618,-0.004469093,0.020322572,12928.0,253.5,29058.5,
57.336,2.0728588,3.5429956,9.189121,-0.033987536,-0.00793311,0.0018034298,13696.0,509.5,29058.5,
57.458,2.1375022,3.686648,9.2106696,-0.0398497,-0.014461435,-0.0293726816,13440.0,765.5,28546.5,
57.575,2.0824356,3.6962248,9.047863,-0.036119224,0.0064558648,0.009797306,13440.0,1277.5,28546.5,
57.691,2.1494734,3.6651,9.157997,-0.09327541,0.0339015,-0.010853537,12928.0,1533.5,30594.5,
57.805,2.1518676,3.6052448,9.2585532,-0.047976808,0.01857991,-0.04456104,13184.0,2045.5,30338.5,
57.921,1.9866676,3.461593,9.277707,-0.0263933392,-0.0026038588,-0.021378804,12672.0,3325.5,28802.5,
58.039,2.0489168,3.4568044,9.270524,-0.007474512,0.0168479016,-0.011786156,12928.0,2301.5,30338.5,
58.162,1.9292068,3.4424392,9.301649,-0.00694158636,0.014050046,-0.0031261258,12416.0,3325.5,30850.5,
58.280,2.1039834,3.4352568,9.275312,-0.00028002262,0.022310384,0.01459363,12416.0,2301.5,30594.5,
58.397,2.0608878,3.40413216,9.225035,-0.0030778944,0.01764729,0.026451212,12416.0,2557.5,30338.5,
58.514,1.9770908,3.40892068,9.150814,-0.035586296,0.032968884,0.025118898,11904.0,3069.5,29826.5,
58.632,1.91963,3.344277,9.078988,-0.11712383,0.092256784,-0.0019270442,11904.0,3581.5,31106.5,
58.753,1.70415184,3.1096452,9.416571,-0.13284512,0.18165494,-0.019380336,9600.0,5373.5,-32637.5,
58.871,1.68739252,3.2868162,9.469243,-0.052906364,0.20350488,0.01246193,7552.0,7165.5,-31101.5,
58.989,1.6754215,3.1862598,9.679933,-0.02652657,0.120102116,0.06588766,4480.0,8445.5,-29821.5,
59.105,1.7807662,2.7241788,9.833161,0.30375368,0.27425066,-0.14235278,3456.0,8445.5,-29309.5,
59.222,0.83505656,3.8279056,9.040681,0.27311048,0.19524454,-0.22802046,128.0,3069.5,-27005.5,
59.345,0.45437852,3.9883172,8.889846,-0.086347416,-0.07348287,0.1372996,-2176.0,-1283.5,-26494.5,
59.460,0.93082468,3.6052448,9.37108,-0.113260104,-0.013262358,0.21897036,-896.0,252.5,-26493.5,
59.577,0.9667376,3.6698884,9.325591,0.03755766,0.03496735,0.0039351304,-896.0,2556.5,-27517.5,
59.692,0.9834971,3.712984,9.016739,-0.07755412,-0.042439996,0.09133483,-640.0,2044.5,-26237.5,
59.806,1.136726,3.356248,9.189121,-0.190401,-0.025919326,0.11411736,-384.0,3836.5,-26493.5,
59.920,1.3641751,2.9827526,9.46206,-0.16548677,0.067609008,0.0780117,-128.0,8188.5,-24957.5,
60.041,1.0218043,3.2820278,9.694298,0.0010522902,0.096386952,-0.010187381,-1408.0,10492.5,-24701.5,
60.159,1.0984187,2.9468396,9.612895,0.031029314,-0.015926984,0.0054006736,-2432.0,10492.5,-25469.5,
60.276,1.1822158,3.0306366,9.335168,0.048749076,-0.05616281,-0.003259357,-2176.0,9212.5,-25213.5,
60.392,1.1534854,3.0066946,9.277707,-0.06090024,-0.0889377,0.0022031236,-640.0,8956.5,-26237.5,
60.507,1.2420709,2.9348686,9.421359,-0.122586296,-0.04257323,-0.04256257,384.0,9725.5,-26749.5,
60.630,1.3641751,2.8391004,9.861892,-0.028791502,0.011385422,-0.08293164,128.0,11261.5,-26493.5,
60.746,1.1319375,3.2054134,9.502762,0.06953315,-0.010597732,-0.11544006,128.0,11005.5,-26237.5,
60.863,1.2181289,3.1742888,9.299254,-0.11965521,-0.14262989,-0.018847412,1408.0,10493.5,-27261.5,
60.981,1.5078273,2.585315,9.684721,-0.10113607,-0.039908604,0.01912349,2688.0,11517.5,-27517.5,
61.097,1.2468593,2.822341,9.76373,0.10750405,0.008321103,-0.12596532,2432.0,12541.5,-28541.5,
61.218,1.3282621,3.0426076,9.411782,0.09351476,-0.10625775,-0.08226548,3456.0,9981.5,-27005.5,
61.334,1.6754215,3.0450018,9.107718,0.04222074,-0.03737721,-0.05348753,3968.0,8189.5,-28285.5,
61.449,1.4767027,3.1479526,9.174756,-0.011737898,0.06481115,-0.12849672,4992.0,7421.5,-28797.5,
61.565,1.2588303,3.0665496,9.428541,-0.054371892,0.106912224,-0.13689029,3712.0,6909.5,-28285.5,
61.683,1.2516477,3.152741,9.55304,-0.017333626,0.02404239,-0.09039258,2176.0,6397.5,-27773.5,
61.797,1.160668,3.1671062,9.375869,-0.006541893,0.0041909368,-0.07187345,1920.0,6141.5,-27005.5,
61.918,1.1917926,3.0210598,9.335168,-0.009073272,0.0261740892,-0.06761005,1408.0,6141.5,-27261.5,
62.035,1.2181289,3.2820278,9.488397,0.0015852153,0.019912222,-0.079467624,896.0,5629.5,-27261.5,
62.153,1.0888419,3.3490652,9.67275,0.062338656,-0.047502792,-0.073338984,1152.0,4093.5,-28285.5,
62.269,0.779989936,3.4591988,9.818796,0.17398644,-0.11385195,-0.10904496,1408.0,2813.5,-28797.5,
62.387,1.2229173,3.62200416,8.995191,0.22008444,-0.039642148,-0.15008019,2176.0,-770.5,-29054.5,
62.511,0.775201536,3.89494336,8.573812,0.04195428,-0.09506634,-0.41068048,2688.0,-5122.5,-31614.5,
62.627,0.6171842,3.82551136,8.774924,-0.11699058,-0.08067736,-0.439858136,3712.0,-7682.5,-30846.5,
62.744,1.0313811,3.6100332,9.181939,-0.19719578,-0.29677844,-0.60959476,3968.0,-8194.5,-32126.5,
62.861,1.2205231,2.9731758,9.936112,-0.22663988,-0.2791919,-0.88604957,5248.0,-9218.5,-31870.5,
62.979,0.94518984,2.5182774,10.113283,-0.066629184,-0.55591316,-1.1251996,6784.0,-12034.5,30593.5,
63.103,1.4551549,1.958034,9.852315,-0.1566935,-0.6181322,-1.2737524,10624.0,-17666.5,26241.5,
63.218,1.9723024,2.4560282,9.562616,-0.2506215,-0.41082436,-1.2961353,11392.0,-24578.5,23681.5,
63.334,1.5341635,1.6132691,9.605712,-0.048642964,-0.3739193,-1.0104874,10624.0,-29442.5,22657.5,
63.451,1.5341635,2.2740688,9.327985,0.09551323,-0.27599436,-1.0174155,9600.0,30461.5,20097.5,
63.568,1.3067143,4.3235052,9.476425,-0.33442396,-0.05296527,-0.79305416,6016.0,24061.5,17537.5,
63.690,0.81829716,3.42568,9.979208,0.08392212,-0.18886112,-0.18791786,2176.0,24573.5,20353.5,
63.804,0.5716944,4.378572,8.9640664,-0.03438723,0.07560288,0.09959517,3200.0,24061.5,20609.5,
63.918,0.67225084,3.820723,9.392629,0.000785827636,0.22229048,0.27146348,2688.0,24061.5,19841.5,
64.035,0.933218832,3.3658248,9.629655,0.048882304,0.16446811,0.3287529,2688.0,25853.5,20609.5,
64.152,0.89251748,3.236538,9.43333,0.10830344,-0.051366492,0.23868856,3200.0,26365.5,20609.5,
64.267,0.9763145,2.81037,9.248977,0.020370812,-0.08240938,0.15128888,4480.0,25597.5,18305.5,
64.387,0.80153776,2.6260164,9.689509,-0.12591706,-0.03577844,0.010729923,6272.0,26877.5,19585.5,
64.503,1.2444651,3.2509032,9.591347,-0.025327504,-0.0910694,-0.09798677,6784.0,28157.5,19329.5,
64.618,1.0648999,2.6116512,9.660779,-0.010405585,-0.241753952,-0.18272184,8064.0,27901.5,18817.5,
64.736,2.6666208,3.083309,8.573812,-0.095673576,-0.009132192,-0.07760239,8576.0,26877.5,16001.5,
64.851,2.4870558,2.9228976,10.398193,-0.495767,0.20470394,0.0224542732,8320.0,29181.5,19073.5,
64.974,2.192569,1.82635316,9.519521,0.07472917,-0.16421334,0.29944204,6784.0,-30978.5,23169.5,
65.091,1.6203546,2.2501268,9.289678,0.003317222,0.13195969,0.207246,9600.0,-29442.5,21377.5,
65.206,1.8813226,3.0976742,9.332773,-0.06010084,0.12250027,0.5234037,9600.0,-27906.5,21377.5,
65.322,1.4575491,2.0346486,9.50755,0.16132946,0.32967484,0.835831,10112.0,-23810.5,22401.5,
65.437,0.566906,2.2237906,9.706269,0.16319472,0.41747428,1.081243,10112.0,-20738.5,24705.5,
65.552,1.2755897,3.2628742,8.877875,0.017972648,0.59826904,1.3202598,9856.0,-15362.5,27521.5,
65.675,1.0385637,2.8774076,10.302425,-0.0026781856,0.50713884,1.2661679,6528.0,-7170.5,31105.5,
65.793,0.957160864,3.4711696,9.555434,0.20223146,0.32461208,1.2556426,3456.0,509.5,-31101.5,
65.916,0.69140448,3.310758,9.095747,0.21675366,0.11317409,1.3005416,3456.0,3581.5,-29309.5,
66.033,1.1870042,2.7409382,10.209051,0.031295776,0.1728617,1.2909489,3712.0,8445.5,-29053.5,
66.150,1.6155662,2.702631,9.351927,-0.14963226,0.1869842,1.0227544,1664.0,15869.5,-28541.5,
66.272,1.0361695,1.8886022,9.97442,-0.0014791042,0.1503456,0.82010968,-384.0,23036.5,-26237.5,
66.388,1.649085,2.1543586,10.642402,0.0027842968,0.15460901,0.9397513,-2432.0,28156.5,-25725.5,
66.504,1.409665,1.6539705,9.960054,0.1878425,0.0027253888,1.1509229,-4992.0,32508.5,-24701.5,
66.622,2.6474672,1.98437036,8.178768,0.211424416,0.095321108,1.1900928,-6784.0,-30211.5,-24189.5,
66.741,1.8717458,1.5151069,9.165179,0.47015948,0.50114348,0.843691664,-11392.0,-29443.5,-23165.5,
66.859,1.8525922,2.9133208,10.472413,0.23021002,0.59214044,0.917102,-18560.0,31996.5,-18813.5,
66.981,-0.34767908,3.0761264,10.197081,0.60525596,0.2602614,0.6054741,-27008.0,29948.5,-17021.5,
67.098,0.87815224,4.6467224,7.79809,0.3034872,0.34472996,0.8173118,-31360.0,23292.5,-14205.5,
67.212,1.7927372,4.5174356,8.0566632,-0.23463376,0.1976427,1.1414635,30336.0,20476.5,-13693.5,
67.329,0.69619288,2.3530774,11.631207,-0.2510212,-0.3571322,0.6402475,29824.0,25340.5,-14205.5,
67.445,1.4790969,2.6643238,9.2585532,0.13388384,0.021644228,0.36299332,-32384.0,27388.5,-14973.5,
67.568,1.8717458,2.276463,9.146026,-0.35694004,0.12809598,0.5958815,31616.0,28668.5,-14717.5,
67.684,1.9387836,2.1663298,9.916959,-0.337887936,0.17459368,0.60680648,28800.0,-30723.5,-13693.5,
67.802,2.5181804,2.7696686,10.374251,-0.06596303,-0.12597598,0.7161893,26240.0,-26115.5,-13437.5,
67.919,3.9906144,2.9300802,9.38784,0.29216254,-0.35140324,0.7669504,27008.0,-25859.5,-14205.5,
68.035,3.818232,2.2118196,9.869075,0.49747188,-0.60707396,0.5297988,30080.0,-30467.5,-14205.5,
68.159,4.1797568,2.4919412,7.12292536,0.742084436,-0.3997662,0.30676976,-25984.0,26108.5,-16253.5,
68.277,3.77513632,4.7520676,7.9178,0.45283944,0.26559064,-0.046159816,-20352.0,14332.5,-17021.5,
68.394,5.4845964,3.78481,9.2394,-0.013070211,0.376172536,0.39630116,-23424.0,8700.5,-17277.5,
68.510,3.60993632,2.4344804,10.544239,-0.029724136,0.6450332,-0.36658096,-29568.0,10236.5,-16509.5,
68.628,2.429595,4.012259,9.25137,0.086986448,0.40614956,-0.5007448,27520.0,9212.5,-14205.5,
68.742,2.60916,4.072114,9.277707,-0.050108508,-0.0048687904,-0.025775436,22656.0,8188.5,-13693.5,
68.863,2.5157862,3.3299116,8.6216952,0.14254386,-0.04057476,-0.425602368,21888.0,8700.5,-12925.5,
68.980,2.6307078,4.318717,7.3767108,0.07686086,-0.05003418,-0.81770192,22400.0,5628.5,-14205.5,
69.095,3.0927888,3.763262,8.518744,-0.30950976,-0.33528228,-0.5228612,22912.0,5628.5,-14205.5,
69.212,3.0784236,3.7991752,9.742182,-0.34468276,-0.39803416,-1.1188044,27008.0,11004.5,-13949.5,
69.329,0.899700032,2.750515,9.833161,-0.26128,-0.5299331,-1.2393788,30592.0,14844.5,-13437.5,
69.450,2.5995832,2.4871528,9.64402,-0.5277425,-0.6078734,-0.8574048,-28032.0,17660.5,-15485.5,
69.564,3.4184,2.4608166,9.179544,-0.44926924,-0.22216894,-0.966121536,-19584.0,23292.5,-18045.5,
69.680,2.1638386,4.141546,8.7414056,-0.15496151,-0.21337568,-0.8693957,-17280.0,27644.5,-18557.5,
69.796,2.7528122,4.321111,10.278483,0.80763424,-0.15915057,-0.6798076,-13696.0,23036.5,-20605.5,
69.913,1.1798216,3.79199268,8.980825,0.38928812,0.03483412,-0.23268356,-12672.0,12284.5,-21885.5,
70.036,1.4551549,3.8757896,8.858722,0.32880116,-0.0020709336,-0.04016441,-13184.0,5116.5,-21373.5,
70.152,1.8573806,4.8837484,8.140461,0.16439378,-0.2598734,-0.04016441,-11904.0,764.5,-21885.5,
70.268,1.8549864,4.4958876,7.747812,0.05940757,-0.13943234,-0.1041154,-9088.0,-1027.5,-24190.5,
70.386,2.2260878,5.0728904,7.92258836,-0.08235048,-0.022588544,-0.27918124,-7040.0,-2563.5,-24702.5,
70.503,1.7879488,5.558913,8.3750932,-0.08488186,0.08732723,-0.22402352,-7552.0,-2307.5,-24446.5,
70.624,2.1135602,5.6929884,8.281719,-0.056237148,0.05415265,-0.12982904,-9088.0,-2307.5,-23934.5,
70.740,2.2428472,5.908467,7.764571,0.006514773,0.024975008,-0.14741556,-10624.0,-1539.5,-23934.5,
70.856,1.2923491,5.922832,7.2234816,0.0226357424,-0.2100449,0.04044049,-11136.0,-2819.5,-24190.5,
70.973,1.790343,6.0497248,7.3407976,-0.216381084,-0.13383664,0.48516636,-7552.0,-2051.5,-24190.5,
71.090,-0.19445014,5.1949944,13.084488,-0.87840708,0.30729198,0.2422858,-4224.0,4348.5,-25469.5,
71.207,-0.223180592,2.9851468,9.696692,-0.078486752,0.21323076,0.7144573,-11136.0,16124.5,-21117.5,
71.330,1.8190734,2.8151584,9.634443,0.09178276,0.08333029,1.0206227,-13184.0,20476.5,-20349.5,
71.445,0.478320536,3.5645436,9.790066,0.3030875,0.35285704,1.3796809,-14976.0,22268.5,-19069.5,
71.563,0.69858708,3.7441086,9.531492,0.5253172,0.33700258,1.784171,-19840.0,22268.5,-17789.5,
71.681,1.4647317,2.6068628,9.098142,0.8233555,0.41281116,2.447396,-24448.0,17916.5,-16765.5,
71.796,3.3848812,3.5286304,7.884281,1.1492391,1.0187468,2.0945998,-28032.0,7676.5,-15997.5,
71.919,2.501421,2.8031874,7.9058296,0.27910588,1.0665767,1.7350086,28032.0,-3843.5,-15230.5,
72.036,4.629866,3.9476158,8.154826,0.423795,0.96665348,1.203949,18816.0,-9987.5,-17022.5,
72.150,2.4104414,4.2468904,9.916959,0.18357908,0.7027223,0.8679397,11136.0,-17155.5,-19582.5,
72.265,1.9890618,3.3610364,9.481214,-0.5742402,0.9458693,0.85781416,4480.0,-19203.5,-21374.5,
72.380,1.75443,2.2573094,9.390234,0.384358584,0.498878536,0.82130872,-2432.0,-16388.5,-20862.5,
72.503,0.81829716,4.0553548,10.218628,0.25285932,0.49727976,1.0019704,-4224.0,-23812.5,-25470.5,
72.620,1.5724707,4.80474,6.9170236,0.343723068,-0.48636644,1.5091817,-1664.0,32251.5,-29566.5,
72.739,0.056941032,2.111263,9.155602,0.027165622,-0.19205868,1.2584405,12160.0,24316.5,-30846.5,
72.855,2.786331,2.6427758,9.878652,0.38782256,0.40881424,0.6628968,21120.0,22012.5,-31614.5,
72.970,2.063282,3.674677,8.935336,0.0058486164,0.5636289,0.95627208,22144.0,17404.5,30337.5,
73.085,2.8366092,2.4249036,8.873087,0.05128047,0.56456152,1.2668341,23168.0,15612.5,29825.5,
73.207,2.7911194,2.3746252,9.933718,0.20436316,0.493149568,1.0344788,25728.0,14332.5,27009.5,
73.325,2.9778672,2.3075876,9.713451,-0.0017455816,0.354855564,0.49276056,28288.0,12540.5,25729.5,
73.443,2.6043716,2.1878776,9.009556,0.02436775,0.20350488,0.1756702,28800.0,11772.5,25217.5,
73.558,2.726476,2.1208398,9.756547,-0.101802216,0.20896736,-0.06481219,26496.0,11260.5,24961.5,
73.675,1.931601,1.8838138,9.928929,0.09937694,-0.047502792,-0.19564528,24448.0,13052.5,26241.5,
73.796,1.8214676,2.4727876,9.952871,0.25898796,-0.08280906,-0.22828692,23168.0,11004.5,24449.5,
73.912,1.8549864,3.0521844,9.31362,0.15839839,-0.14769268,-0.230285392,23168.0,7932.5,21889.5,
74.029,1.0241985,4.771221,9.378263,0.053811864,-0.07961152,0.00193666116,23424.0,5884.5,19841.5,
74.146,2.0608878,5.2285132,8.652821,-0.03132291,0.26479124,0.29304692,24448.0,5116.5,19841.5,
74.262,3.260383,5.11838,10.21384,-0.04011616,0.464371616,0.397633468,23680.0,5372.5,20097.5,
74.378,1.7951314,4.285198,7.831609,0.44950868,-0.18060079,0.18006682,23936.0,4604.5,19329.5,
74.501,0.7512595,3.6651,7.0798296,-0.08621417,0.084929064,0.29784324,27008.0,-771.5,15232.5,
74.616,1.9770908,3.8422708,10.225811,-0.5204147,0.5299214,0.07414799,28032.0,764.5,16001.5,
74.731,1.3402331,3.188654,10.474808,-0.22570728,0.101582976,-0.031104684,21888.0,7676.5,22145.5,
74.849,2.9587136,2.4608166,9.50755,0.010245249,-0.1618152,-0.45478,20096.0,10492.5,24449.5,
74.964,1.8789284,1.9436688,9.888228,0.0054489224,-0.45638944,-0.57082444,19072.0,9468.5,23681.5,
75.086,2.477479,1.87663132,9.270524,-0.2411621,-0.4433328,-0.7534845,19584.0,11260.5,25985.5,
75.202,2.180598,2.180695,9.38784,-0.218379568,-0.22763144,-0.9261522,17792.0,15868.5,28033.5,
75.317,2.264395,2.7912164,9.725423,-0.2594148,-0.14529452,-0.98290868,12672.0,19452.5,31105.5,
75.432,2.2117226,1.74973868,10.041457,-0.06689565,-0.33421642,-1.1140082,8320.0,25084.5,-32126.5,
75.551,2.360163,2.8367062,8.772531,-0.17174866,-0.41508776,-1.413512,4992.0,29692.5,-30334.5,
75.672,1.826256,3.0569728,9.416571,0.012643397,-0.33315056,-1.4265686,640.0,-31491.5,-28286.5,
75.789,1.69936352,3.62679268,9.924141,-0.06942703,-0.5064844,-1.2869422,-2176.0,-25348.5,-25214.5,
75.906,1.5916243,3.8398766,9.320803,0.07592825,-0.4853006,-1.0452608,-1664.0,-19716.5,-23422.5,
76.023,1.2995317,4.2085832,8.387064,-0.04744388,-0.55271568,-0.9429393,896.0,-16899.5,-21118.5,
76.138,1.4790969,3.89973168,9.0119508,-0.1533627,-0.052165872,-0.57362232,2176.0,-13059.5,-20094.5,
76.256,1.7448532,4.096056,9.406994,-0.03585276,-0.11984736,-0.4090817,1920.0,-9987.5,-18302.5,
76.376,1.87414,4.206189,9.124477,0.01757297,-0.05842775,-0.16500208,1152.0,-9219.5,-18302.5,
76.489,1.9411778,3.9787404,9.043075,0.031562252,-0.03591167,-0.035234852,2432.0,-8963.5,-18046.5,
76.605,1.898082,3.9069144,9.040681,0.043686284,0.00019399822,0.11465029,2944.0,-9219.5,-18046.5,
76.722,2.0321574,3.701013,9.220246,0.035559192,0.05122156,0.18073298,3200.0,-9987.5,-18558.5,
76.837,2.1063776,3.77762736,9.040681,0.058075256,0.07573611,0.21843742,3456.0,-11523.5,-18814.5,
76.960,2.135108,3.581303,8.889846,-0.0064086468,0.109843304,0.28118932,3200.0,-12547.5,-19070.5,
77.076,2.2093284,3.5166596,9.380657,-0.048642964,0.108777452,0.24335166,2432.0,-13059.5,-18814.5,
77.194,2.2739718,3.595668,9.270524,0.07606147,0.01444974,0.17553696,2688.0,-13827.5,-19326.5,
77.314,2.2476356,3.54539,8.992797,0.0450186,-0.022721774,0.10985397,2944.0,-15619.5,-20350.5,
77.429,2.5876122,3.5669376,8.887452,0.011844024,6.0766936e-05,-0.059882632,3968.0,-16899.5,-21374.5,
77.568,2.5660644,3.2820278,9.038286,-0.12072109,0.0205783768,-0.221092452,2944.0,-15875.5,-20094.5,
77.687,3.0927888,2.9779642,9.14842,-0.085681248,-0.10745685,-0.5106039,2176.0,-13827.5,-21886.5,
77.803,3.39685216,3.272451,9.404599,-0.0594346832,-0.11118732,-0.7830618,1152.0,-11011.5,-20094.5,
77.922,2.7049282,3.868607,8.873087,-0.053705736,-0.35007096,-0.83928548,896.0,-7683.5,-17790.5,
78.038,2.7671774,4.074508,9.909776,0.08325596,-0.39377076,-0.81650284,2944.0,-6403.5,-17790.5,
78.152,1.8454096,3.1814714,9.730211,0.084721508,-0.63078916,-0.8250297,6272.0,-4611.5,-15998.5,
78.274,2.6426788,4.3498416,8.652821,0.07752702,-0.52300508,-0.8210327,11904.0,-4611.5,-15998.5,
78.389,2.7671774,4.012259,9.174756,-0.0952739,-0.5026207,-0.9553298,16256.0,-3843.5,-15486.5,
78.503,2.0321574,4.4336384,7.249818,-0.14816667,-0.6774201,-1.1074798,22144.0,-1795.5,-14718.5,
78.620,3.0568756,5.020218,7.2115107,-0.32389868,-0.417219468,-0.86446616,27776.0,252.5,-15229.5,
78.738,2.858157,4.80474,7.862734,-0.2440932,-0.60587484,-0.6568918,32384.0,4604.5,-16253.5,
78.856,4.9171704,5.7815744,12.945623,-0.456863468,-0.3507371,-0.87778932,-25216.0,7932.5,-17789.5,
78.974,1.2277057,1.84311252,9.126872,-0.23503346,-0.5086161,-0.8086422,-23424.0,13308.5,-18301.5,
79.091,3.025751,2.204637,8.652821,-0.48031216,-0.29771108,-0.85820424,-17280.0,15868.5,-19325.5,
79.206,3.904423,3.7417144,8.585782,-0.53640248,-0.107590068,-1.0676436,-13952.0,18940.5,-21629.5,
79.323,3.6458492,3.212596,8.411006,-0.10659854,-0.1085227,-1.1214691,-11904.0,23292.5,-22141.5,
79.445,2.9539252,3.5621492,9.078988,0.13828046,-0.13130524,-1.1454507,-10880.0,19964.5,-22141.5,
79.562,1.9339952,4.230131,11.27926,0.0991104832,-0.1840648,-0.70712,-8832.0,12284.5,-23933.5,
79.676,1.9770908,3.569332,9.299254,0.18770926,-0.65943384,-0.34140024,-4992.0,6140.5,-27261.5,
79.792,2.6881686,3.284422,9.280101,-0.16069044,-0.5388596,-0.8003819,3456.0,3581.5,-30333.5,
79.907,2.48945,3.2102018,7.510786,0.21075826,-0.6430464,-1.2108673,9088.0,-1282.5,30593.5,
80.022,1.5413461,5.815093,5.7486532,-0.14083896,-0.5888213,-0.7360312,14464.0,-11010.5,25217.5,
80.143,1.8765342,5.546942,8.085394,-0.5102892,0.0901250832,-0.46423944,17280.0,-11522.5,23169.5,
80.260,3.1717972,5.5110292,12.466784,-0.00081294776,-0.25467736,-0.3352716,15488.0,-8962.5,24961.5,
80.376,4.196516,3.99549984,9.038286,0.1657261,-0.47224396,-0.22615524,18560.0,-12802.5,20353.5,
80.493,4.6825384,5.0537368,8.552263,-0.16548677,-0.29051656,-0.3894967,23936.0,-16898.5,14977.5,
80.609,2.1949632,2.5110948,5.9976508,-0.18800284,0.036432896,-0.5432456,24960.0,-16642.5,16513.5,
80.730,3.4231884,5.606797,6.536346,0.193304976,0.08532876,-0.2845105,22144.0,-19714.5,17025.5,
80.845,2.0225806,6.396884,9.0358932,0.21915182,0.26465804,-0.012052619,19840.0,-23554.5,17025.5,
80.962,0.36579304,3.686648,10.393405,0.13481646,0.430797336,0.9794543,16768.0,-24322.5,19073.5,
81.079,2.4750848,5.1351396,9.105324,0.2672483,0.27678204,1.0873716,17536.0,-20738.5,20609.5,
81.195,3.1861624,4.4312444,7.664015,0.11203391,0.33806844,0.6390484,17792.0,-15874.5,21377.5,
81.317,1.9507546,4.242102,5.853998,0.009712324,-0.006600797,0.2136411,16512.0,-13058.5,23425.5,
81.431,5.2547524,5.6834116,8.650426,-0.7253244,0.53951408,0.035777396,16000.0,-10498.5,24449.5,
81.547,1.9866676,4.8358644,12.260882,-0.20971952,-0.08454107,-0.6107938,11136.0,-1538.5,30081.5,
81.663,2.501421,4.783192,9.576982,-0.15349592,-0.25627612,-0.23361618,10112.0,-3074.5,31105.5,
81.778,4.184545,6.2699916,10.0869464,-0.4644577,-0.14462836,-0.47956104,12672.0,-2050.5,28289.5,
81.895,2.015398,1.041055,6.4022704,0.090850148,0.008454334,-0.43106488,12672.0,765.5,29058.5,
82.016,2.4870558,5.932409,6.3926936,0.231275868,0.07760134,-0.6672839,11648.0,-4610.5,28289.5,
82.132,-0.72596296,2.2501268,10.017515,0.27777356,0.32101482,-0.28277848,8064.0,-8962.5,30849.5,
82.249,-0.74511656,3.677071,11.2409528,-0.06636272,0.2995646,0.6972705,3968.0,-14338.5,31873.5,
82.365,1.2827723,3.631581,9.205881,0.20915948,0.08053243,0.45039304,3200.0,-10754.5,32641.5,
82.481,1.4360012,4.632357,7.0032152,-0.088878792,0.16979736,0.26280344,3200.0,-11522.5,-32382.5,
82.603,1.3881172,3.9476158,6.8164668,-0.432748616,-0.085340456,0.28518626,1408.0,-7938.5,-30590.5,
82.723,1.0672941,2.6164396,14.475518,-0.38611764,-0.5553803,-0.17739258,4224.0,1021.5,-30077.5,
82.841,2.7049282,2.5757382,9.603318,-0.2531529,-0.25934046,-0.5091384,10624.0,4349.5,32642.5,
82.957,3.296296,4.534195,10.924917,-0.3602708,-0.25054724,-0.45358096,12928.0,3837.5,30082.5,
83.072,3.2555944,0.8614898,8.494802,0.2809711,-0.48450124,-0.6285136,16256.0,4349.5,28546.5,
83.193,2.6115542,2.6643238,6.4453664,0.2997567,0.13076061,-1.051123,19328.0,-4610.5,24193.5,
83.310,0.12637288,6.298722,5.7007692,0.35105076,0.3294084,-0.83928548,14976.0,-16386.5,24193.5,
83.425,0.37297564,6.5812372,11.03505,-0.4495358,0.17432722,0.16581108,9600.0,-23810.5,24961.5,
83.541,1.1774274,3.1335872,10.644796,0.24966178,-0.0052684844,0.4766396,9344.0,-19458.5,26753.5,
83.659,1.1343317,4.7065772,8.820415,-0.12778233,0.15580809,0.36232716,9856.0,-18690.5,25729.5,
83.776,1.69696932,3.71059,7.656832,-0.21278386,0.100650352,0.0030025114,9088.0,-14594.5,28289.5,
83.900,1.8406212,4.8717776,6.462126,-0.29578692,-0.17367276,-0.10384895,8064.0,-11522.5,29313.5,
84.017,2.5325456,5.070496,8.767742,-0.22570728,-0.33474934,-0.084663648,9600.0,-7426.5,30337.5,
84.132,0.4376191,2.3818078,12.0885,-0.006675124,-0.5932179,-0.41734204,13696.0,-6402.5,27265.5,
84.246,4.5149444,8.712077,12.845067,-0.6016858,0.246138868,-0.806244,17792.0,-8194.5,23425.5,
84.362,1.1678506,0.18871908,8.542686,0.42219624,0.11463963,-0.58361464,12672.0,-7682.5,27521.5,
84.485,0.21495834,2.2501268,5.004057,0.37929576,-0.021922388,-0.5339194,10112.0,-17154.5,28033.5,
84.601,0.7416827,6.265203,5.672039,0.07299715,0.048423708,-0.1719301,8320.0,-24322.5,26497.5,
84.715,0.123978668,3.2221728,12.074134,0.22981032,-0.07414903,0.41935016,7808.0,-26626.5,24705.5,
84.833,0.7416827,3.023454,12.617619,-0.6776277,-0.073083184,0.86927208,10880.0,-23810.5,23681.5,
84.948,2.6977454,2.8151584,8.013568,0.007580623,-0.0023373962,0.11185244,13440.0,-13314.5,25729.5,
85.071,1.2971375,3.6459464,6.2993196,0.033560724,-0.06029299,-0.15674176,13696.0,-12802.5,26497.5,
85.188,2.5636702,4.9196616,9.43333,0.041421352,-0.32715516,-0.036567168,14976.0,-14338.5,24449.5,
85.303,4.7759124,4.701789,12.790001,0.052079856,-0.42134964,-0.16433592,19328.0,-16642.5,19841.5,
85.419,4.3712924,8.271544,12.816337,-0.3397532,-0.19179222,-0.47156716,22144.0,-17666.5,17537.5,
85.535,2.2093284,-0.179988,7.142079,0.11429884,-0.47131132,-0.3140878,24192.0,-18178.5,15489.5,
85.650,2.6139484,4.21816,5.0926424,0.1170967,0.10131651,-0.4662379,27776.0,-21762.5,10369.5,
85.770,0.590848,6.322664,7.8962532,0.16865718,0.4025523,-0.24107712,25216.0,-27906.5,12417.5,
85.885,-0.38119788,-1.259773,12.119624,-0.8957272,0.47343136,0.15768397,19072.0,-29698.5,15489.5,
86.001,0.1551033,-0.041124284,9.114901,0.194237584,0.33313888,0.686612,15744.0,-22274.5,21633.5,
86.117,0.21974674,5.3961076,8.19074,-0.5610503,0.54284484,0.43706992,12416.0,-17410.5,25473.5,
86.233,0.475926336,2.4129326,9.272919,-0.39730912,0.49474836,0.58548948,6784.0,-7938.5,-32638.5,
86.356,0.530993,3.3658248,9.083776,-0.0004132688,0.019379298,0.2998417,2688.0,253.5,-28541.5,
86.470,-0.55118624,3.7058016,13.702191,0.30108904,-0.80452264,0.36579116,6016.0,2301.5,-30845.5,
86.587,3.607542,2.52546,8.679156,-0.195463792,-0.1606161,0.34394128,14976.0,2045.5,28290.5,
86.702,3.1382784,1.77846916,9.31362,0.07379655,-0.11771564,-0.15927314,16768.0,4861.5,27010.5,
86.818,2.6115542,2.1184456,6.77816,0.455370784,-0.03377997,-0.5569684,17536.0,1789.5,24962.5,
86.940,2.561276,4.5796848,6.73745836,0.3209405,-0.07294995,-0.432263936,17280.0,-9218.5,23425.5,
87.056,1.68978668,4.1247864,8.875481,0.34638768,0.06614346,-0.23135124,16768.0,-14594.5,23169.5,
87.173,-0.098682104,2.8798018,13.477137,-0.19359856,0.058815744,0.02631798,17280.0,-20994.5,19841.5,
87.290,2.7552064,1.5510199,8.188345,0.21528812,-0.14969115,0.104391484,17792.0,-21250.5,19841.5,
87.408,2.5325456,2.7241788,7.48205536,-0.71999512,0.12236705,0.14382793,18304.0,-20226.5,19329.5,
87.527,1.8645632,3.88536668,7.333615,-0.461793068,-0.06722101,0.143295,18048.0,-10498.5,23681.5,
87.649,2.6139484,5.8174872,10.197081,-0.44340712,-0.1904599,-0.00698983136,19072.0,-2050.5,25985.5,
87.767,3.2412292,2.537431,11.231376,-0.20385734,0.06387853,0.030714612,21376.0,2301.5,23170.5,
87.883,2.8318208,3.8039636,10.719016,0.4280584,0.10398114,-0.09918585,20352.0,2813.5,24706.5,
88.002,0.8613928,3.083309,4.9729324,0.5367751,-0.00793311,-0.3523252,20096.0,-4098.5,24193.5,
88.115,2.2452414,3.4304684,5.4206476,0.3290676,0.10717868,-0.5106039,20096.0,-14594.5,21889.5,
88.237,2.6426788,7.869318,11.674303,-0.357339736,0.40868098,-0.07227314,16000.0,-18690.5,22145.5,
88.356,-0.9151048,-1.2932918,14.49946,0.5467675,-0.2203037,0.46664724,13952.0,-17666.5,24449.5,
88.470,2.453537,3.83508832,9.031104,-0.5852984,0.08106536,0.3807131,17024.0,-16130.5,20865.5,
88.584,1.0050449,2.1304166,6.4812792,-0.18214066,0.098518652,-0.0937233664,17792.0,-8450.5,23425.5,
88.709,1.862169,3.7153784,8.138066,-0.31976856,-0.053764656,-0.052021988,16256.0,-5890.5,26753.5,
88.831,3.226864,2.1639354,15.220116,-0.11725704,-0.076147508,-0.218694268,17024.0,-3842.5,24961.5,
88.948,2.6881686,3.1599236,12.5841,-0.23463376,-0.025919326,-0.5256591,17280.0,-5378.5,24449.5,
89.064,-4.583022,2.4225094,12.670291,0.4135362,-0.88792548,-0.10797911,17536.0,-6914.5,23169.5,
89.180,2.0345516,1.1583707,3.96976132,0.124690872,-0.034446128,-0.22029304,21632.0,-11266.5,20353.5,
89.299,-1.307754,19.693682,12.1962384,0.17078888,0.27038692,-0.14648294,19072.0,-14850.5,21121.5,
89.423,0.5381756,3.035425,14.339049,0.3907537,0.01658144,0.6141342,16000.0,-17154.5,21889.5,
89.537,1.5413461,3.3538536,12.210604,-0.432748616,0.5460424,0.8891235,18048.0,-13826.5,21377.5,
89.654,0.7321059,2.4488456,7.252212,-0.6786935,0.88351716,0.6018769,13952.0,-514.5,30337.5,
89.769,-0.73553976,1.81917036,6.6728152,-0.6648374,0.3728418,0.7022,4480.0,12797.5,-28029.5,
89.887,1.0816593,1.2685042,10.5562104,-0.7315863,0.0040577016,0.32062578,640.0,25341.5,-23421.5,
90.005,-1.1377656,-1.5303178,14.983089,0.201298852,-0.055629896,0.011929004,896.0,-31746.5,-24701.5,
90.130,0.9882855,2.2213964,10.146802,0.3554474,-0.2492149,0.026984136,2176.0,29693.5,-24957.5,
90.245,-0.51287896,3.5022944,6.727882,0.16132946,0.05828282,-0.24214298,5760.0,25085.5,-27005.5,
90.361,-0.20402694,0.9261332,6.940966,0.23487312,0.07506996,0.006200061,4736.0,21501.5,-25725.5,
90.476,-1.9350348,7.014588,16.776346,0.37743056,-0.4310755,0.7433685,4736.0,18685.5,-26749.5,
90.592,-1.0276322,3.1335872,13.666279,0.39568324,0.04762432,1.1671772,6784.0,16637.5,-28797.5,
90.715,1.421636,3.2221728,8.0566632,-0.17161538,0.3163517,1.025952,6784.0,19965.5,-27261.5,
90.830,0.5980306,1.9316978,7.084618,-0.3226996,0.34539616,0.59241752,2688.0,28157.5,-24445.5,
90.944,-0.024461806,1.0219012,10.508327,-0.26461084,0.095454332,0.4605186,-1152.0,-29955.5,-23677.5,
91.061,0.67703928,1.4600401,13.065334,0.10563882,-0.14849207,0.43826896,-2944.0,-25603.5,-23677.5,
91.179,1.3833288,1.9484572,10.5801528,0.16585932,0.12703014,0.32728736,-1920.0,-25091.5,-24189.5,
91.298,1.2731955,2.2860398,7.764571,-0.08981143,0.28970546,0.14915718,-4736.0,-24835.5,-22653.5,
91.421,0.25326556,1.5198953,7.747812,-0.09047757,0.17925678,0.40962428,-8064.0,-23043.5,-21373.5,
91.537,0.016239584,1.75931552,10.596911,0.1529359,0.3063594,1.0539305,-12672.0,-20739.5,-19837.5,
91.655,0.34185104,1.8838138,11.485161,0.06753468,-0.04896833,0.8907223,-17280.0,-19459.5,-19837.5,
91.771,1.2636187,1.6228459,8.956883,-0.1536292,0.032968884,0.54765176,-18304.0,-17667.5,-18813.5,
91.887,0.69619288,1.82156468,7.520363,-0.14803346,0.21229814,0.483834036,-20608.0,-14083.5,-18301.5,
92.012,0.9763145,1.2301967,10.414952,-0.32816212,-0.19605562,0.09359976,-23680.0,-9731.5,-19325.5,
92.128,0.06651783,0.9404984,13.824296,0.04408598,0.09425525,-0.04442781,-23168.0,-6147.5,-20093.5,
92.242,1.4407896,1.2110431,9.591347,0.13268475,0.13982034,-0.117838224,-23168.0,-7683.5,-20349.5,
92.361,0.94758404,1.3499069,7.3551624,0.1426771,0.04962279,-0.26266056,-24448.0,-9731.5,-19325.5,
92.479,0.4687437,1.9077558,7.877099,0.25419164,0.095454332,-0.04256257,-24704.0,-12291.5,-18813.5,
92.600,1.5533171,2.9013498,10.979984,0.105239112,0.24387394,0.6016104,-28288.0,-15107.5,-18045.5,
92.718,-1.721951,0.5502435,13.067728,-0.10979609,-0.06602193,0.66063184,30336.0,-16643.5,-17533.5,
92.834,0.92124784,1.74495024,10.09413,-0.10100283,-0.030715652,0.53712652,29056.0,-15107.5,-17789.5,
92.952,0.9739203,2.2237906,7.664015,-0.20678846,0.12609753,0.397500232,26752.0,-14851.5,-17533.5,
93.070,0.25565976,1.800017,9.0598344,-0.30031676,-0.13103877,0.27252932,25216.0,-10755.5,-19069.5,
93.195,3.5189566,0.241391508,12.303978,-0.249688916,-0.24521796,-0.2068367,25728.0,-5891.5,-20605.5,
93.316,0.34185104,-0.06506631,13.10843,0.14147802,-0.3001092,-0.34579688,29056.0,-4099.5,-20861.5,
93.431,1.409665,1.2445619,9.926536,0.4580354,-0.70673096,-0.07187345,-30336.0,-7683.5,-22397.5,
93.545,3.8110492,4.831076,6.143697,0.235272816,-0.4669147,-0.02417666,-21632.0,-13315.5,-24957.5,
93.661,1.5581055,1.3738489,6.9242068,0.21888536,0.51273452,-0.23361618,-18304.0,-17667.5,-23933.5,
93.784,0.10721928,2.2070312,8.583388,0.13601554,0.239877,-0.202706532,-23424.0,-22531.5,-22141.5,
93.901,-0.49611956,1.9484572,10.829149,0.045684756,0.07760134,0.39963192,-25984.0,-24835.5,-21373.5,
94.018,1.5509229,2.5757382,8.485226,-0.20878692,0.3290087,0.53686004,-27520.0,-24323.5,-20349.5,
94.134,1.2971375,2.0538022,8.707887,-0.3067119,0.6844697,0.478238336,31616.0,-20995.5,-19069.5,
94.251,0.5214162,1.838324,9.993573,-0.362935432,0.5706902,0.2370898,22656.0,-16131.5,-19069.5,
94.368,0.07609463,0.8016347,11.669515,-0.3020488,0.083063824,0.07121691,17024.0,-11523.5,-21117.5,
94.489,1.3091085,-0.73783692,10.462836,0.25765564,-0.12837414,-0.09718738,16000.0,-7683.5,-22141.5,
94.606,1.1319375,1.71861392,7.714293,0.442713868,0.026840246,-0.05841709,16768.0,-12803.5,-21629.5,
94.725,2.4224124,5.142322,9.406994,0.124690872,-0.11385195,-0.14488417,16768.0,-20483.5,-20861.5,
94.843,0.9715261,3.0737322,7.510786,-0.22184356,0.28704084,-0.15261158,17280.0,-20483.5,-20349.5,
94.959,0.7201349,3.890155,11.820349,-0.3350901,0.3819015,0.030314918,14720.0,-15363.5,-21117.5,
95.080,-2.8855328,0.0785858,13.022238,0.5261166,-0.6199974,0.38337772,12416.0,-13315.5,-22397.5,
95.195,2.2093284,3.1240104,8.317632,0.31441218,-0.30690402,0.51954,18560.0,-20995.5,-21373.5,
95.311,1.8430154,2.2237906,7.35276836,-0.30045004,0.12063503,0.10692287,19328.0,-22019.5,-21373.5,
95.430,0.8422392,1.0482376,10.410164,-0.4108987,0.199108232,-0.242809132,15232.0,-18691.5,-23165.5,
95.548,-0.24712258,-1.1233034,14.315107,0.37370008,-0.19578916,-0.2897065,14208.0,-16643.5,-24957.5,
95.671,1.6107778,2.4464514,8.094971,0.28230342,0.01338389,-0.712316036,19072.0,-24579.5,-25213.5,
95.788,1.0840535,1.5222895,6.739853,-0.17428,0.066676384,-0.6836713,21376.0,-28675.5,-24957.5,
95.903,-1.5902698,6.279568,8.803655,-0.07675476,0.100650352,-0.10851203,22912.0,-26371.5,-24957.5,
96.020,-4.441764,-0.464898,17.078016,-0.6279324,-0.038309836,0.092000976,22400.0,-23043.5,-25981.5,
96.134,1.0481405,1.5103185,9.457272,0.45097416,-0.5508504,0.09573146,24448.0,-17667.5,-28797.5,
96.255,0.68661608,2.5278542,7.0894068,0.046750604,-0.2638703,7.142406e-05,28544.0,-21251.5,-29053.5,
96.371,1.2372825,2.2668862,8.573812,-0.021597028,-0.1925916,-0.07706946,29312.0,-21763.5,-30589.5,
96.489,1.4383954,2.4368746,10.853091,-0.384518836,0.12703014,-0.122767776,30592.0,-22275.5,-31869.5,
96.609,-0.53442676,0.56221456,13.797959,-0.42035812,0.2658571,-0.29357022,26752.0,-18691.5,31106.5,
96.726,-0.103470504,0.6244638,10.786054,0.042753668,-0.0048687904,-0.25799748,24960.0,-16131.5,28290.5,
96.850,1.0912361,1.3499069,8.679156,0.17012273,-0.16927614,-0.013384931,26496.0,-18691.5,29058.5,
96.969,1.6275372,2.7361498,8.6456376,-0.26687574,0.188582968,0.2566748,28032.0,-20739.5,29314.5,
97.087,-0.43626456,-1.1328802,7.664015,0.35571384,0.43599336,0.24894736,22912.0,-18691.5,29826.5,
97.204,-2.174455,1.84071824,13.118007,0.74674756,-0.26653492,0.6672934,17792.0,-27139.5,29826.5,
97.322,1.6083836,3.0737322,9.526704,0.171321808,-0.03377997,0.5613746,18816.0,27388.5,30850.5,
97.439,1.2540419,2.027466,7.776542,-0.20079304,0.5020761,0.26293668,18048.0,24060.5,30082.5,
97.559,0.38494664,2.0585906,7.8340036,-0.450601568,0.2970332,0.054962696,12416.0,26364.5,28546.5,
97.678,1.2061579,1.3858199,12.466784,-0.4158283,-0.09000355,-0.09878615,10624.0,30204.5,26242.5,
97.794,1.4886737,1.1344287,11.810772,0.022768974,-0.243885652,-0.23508172,14464.0,-32515.5,23426.5,
97.914,0.69619288,0.7657217,9.756547,0.2339405,-0.10106175,-0.5231277,20864.0,-32003.5,21122.5,
98.029,1.2516477,1.5222895,7.786119,0.2275454,0.022310384,-0.5777525,25984.0,31484.5,21122.5,
98.150,1.2157347,1.6012981,7.55867,0.217553052,0.22082492,-0.5256591,29312.0,30204.5,19330.5,
98.267,-1.1760728,2.1280224,11.037445,0.20449638,0.20350488,-0.13622414,30080.0,27900.5,18306.5,
98.385,-0.18966174,2.4679992,10.501143,-0.04318048,-0.15741856,-0.028040368,30592.0,27900.5,17282.5,
98.502,0.9667376,1.9771876,8.997585,-0.46872104,0.090258312,-0.243741744,-31872.0,32508.5,15490.5,
98.619,0.79674936,1.85268932,9.067017,-0.2548849,0.054019416,-0.34539716,-31872.0,-26627.5,14978.5,
98.742,1.0026507,2.2381558,9.426147,-0.024794564,-0.5048856,-0.5778857,-29824.0,-24323.5,13698.5,
98.858,1.1917926,0.7489623,13.065334,0.14347648,-0.484634468,-0.86646456,-24448.0,-25091.5,11394.5,
98.976,1.7951314,0.4712349,10.802814,0.38249332,-0.72098664,-1.2172624,-17792.0,-30467.5,8578.5,
99.093,1.72091132,1.4384923,8.059058,0.3457215,-0.4626513,-1.3343726,-10624.0,25852.5,5762.5,
99.210,1.5365577,2.0609848,8.401429,0.14427588,-0.377116868,-1.0456606,-8064.0,15612.5,5250.5,
99.333,2.1853864,3.461593,8.813231,0.30761736,0.23161666,-0.9733161,-7552.0,6652.5,2434.5,
99.449,0.052152632,1.5127127,13.053363,0.173719968,0.08053243,-0.37404192,-12416.0,-259.5,2433.5,
99.567,1.2588303,3.856636,8.566628,-0.03438723,-0.18073402,-0.25053652,-15488.0,-4099.5,3457.5,
99.683,0.4424075,2.123234,9.46206,-0.12831526,-0.2513466,-0.26852274,-15232.0,-5635.5,3201.5,
99.797,2.2620008,3.236538,8.829991,-0.06196609,-0.22616588,-0.3984232,-14720.0,-6659.5,4225.5,
99.912,0.021027982,2.6739006,5.925824,0.34798644,-0.5468535,-0.6265151,-15744.0,-10243.5,3201.5,
100.034,3.36812184,4.378572,12.524244,-0.5473275,-0.35233588,-0.3070266,-12928.0,-13315.5,1153.5,
100.157,1.3186853,1.4552517,11.95203,-0.23370116,-0.2476161,-0.71284892,-12416.0,-11779.5,1665.5,
100.274,2.0369458,2.5996802,8.829991,-0.042647556,-0.115450728,-0.93374632,-13184.0,-13571.5,2433.5,
100.392,1.172639,4.7855864,9.474031,-0.029191196,-0.079478284,-0.8109072,-17024.0,-16131.5,3713.5,
100.508,1.6586621,0.48320588,5.5595116,0.5610232,-0.4326743,-0.28730836,-17792.0,-18947.5,3969.5,
100.630,0.68182768,6.150281,11.540227,-0.220644492,0.35498876,-0.51859784,-17792.0,-25603.5,1665.5,
100.747,-1.4585886,3.89494336,11.442065,-0.1766782,0.21669476,0.26333636,-24192.0,-27139.5,3713.5,
100.865,1.2779839,4.206189,8.482832,-0.2053229,0.01444974,0.5280668,-23936.0,-25347.5,7041.5,
100.979,0.94997824,2.9348686,7.1277132,-0.15149747,0.00912049,0.50874824,-21120.0,-22531.5,9089.5,
101.095,1.71612284,3.413709,7.81724336,-0.15189718,-0.06668808,0.3735186,-19328.0,-19459.5,10625.5,
101.219,2.3146732,2.1328108,13.876968,-0.17028306,-0.17580448,0.11185244,-16000.0,-16899.5,11137.5,
101.336,2.147079,1.6659415,10.326367,-0.07941939,-0.07867889,-0.3059607,-12672.0,-15875.5,11905.5,
101.452,1.9938502,2.7840338,8.722252,0.08285627,0.14061972,-0.43013224,-12928.0,-16643.5,12161.5,
101.569,1.7568242,5.362589,9.0742,-0.0398497,0.0509551,-0.29956564,-14976.0,-19203.5,13953.5,
101.683,1.862169,0.923739,6.0191984,0.5542284,-0.16314751,0.019389954,-15232.0,-21251.5,14721.5,
101.804,0.9739203,5.6331332,12.289613,-0.2293045,0.6393043,-0.11996993,-14720.0,-27395.5,11393.5,
101.920,-0.74990492,3.9356448,9.347138,-0.06569657,0.27558296,0.529932,-20096.0,-26883.5,15745.5,
102.034,1.1199665,3.236538,8.324815,-0.11765675,0.036166432,0.7786747,-18560.0,-25091.5,17793.5,
102.149,2.015398,3.3179408,7.30488436,0.01144433,-0.022988238,0.5703011,-13696.0,-21251.5,18561.5,
102.266,1.0672941,3.748897,8.861115,-0.32722944,-0.14529452,0.354733,-10624.0,-18691.5,18305.5,
102.381,1.4240302,2.0681674,14.085264,-0.1849385,-0.042173536,0.018190872,-6528.0,-14339.5,18049.5,
102.505,2.549305,2.4105384,9.050258,0.27351016,-0.014194977,-0.3996223,-5248.0,-13059.5,19585.5,
102.620,1.4024824,2.1280224,7.656832,0.0318287,0.023109772,-0.3054278,-5248.0,-17155.5,21377.5,
102.735,0.7249233,1.7018545,6.122149,0.2992238,-0.3063711,0.0054006736,-4736.0,-18947.5,22145.5,
102.852,2.135108,6.076061,10.819572,0.431255936,-0.0004721582,0.010330229,-640.0,-25091.5,17025.5,
102.969,-0.402745668,3.212596,11.03505,-0.383453,0.5618969,0.236290416,-2176.0,-26883.5,15489.5,
103.091,0.82547976,4.3498416,8.72704,0.006115079,0.15127823,0.4634497,-4992.0,-22019.5,22401.5,
103.206,0.88772904,3.1623178,6.65845,0.115631152,-0.009132192,0.6058739,-2688.0,-18691.5,23681.5,
103.323,1.682604,3.6339752,7.786119,-0.2747364,-0.1354354,0.5913517,1408.0,-14594.5,22145.5,
103.439,2.4679022,2.8965612,13.874574,-0.29938418,0.034167964,-0.0049913632,4992.0,-6658.5,21377.5,
103.557,1.9387836,1.898179,9.667962,0.180514768,-0.018325142,-0.3195503,4992.0,-2818.5,22657.5,
103.680,1.5269809,3.0066946,8.482832,0.15346883,-0.010064807,-0.118371144,4480.0,-6658.5,22145.5,
103.798,2.180598,7.1558456,8.947307,0.13788077,-0.060959144,-0.10864527,4992.0,-8962.5,21633.5,
103.914,2.1590502,1.84071824,7.1372904,0.7159711,0.0706733236,0.09546499,6528.0,-10754.5,19585.5,
104.033,0.1622859,4.7353076,13.517838,-0.5778374,0.58148192,0.2328264,5504.0,-16130.5,17537.5,
104.149,0.4184655,3.96676936,8.377487,-0.08941172,0.40974684,0.4110898,-384.0,-9219.5,24193.5,
104.271,0.95476664,2.7696686,7.838792,-0.12231983,0.07093979,0.5970806,-3200.0,-4355.5,27009.5,
104.387,2.2141168,3.3538536,8.530716,-0.103933944,0.12623074,0.35086928,-2176.0,508.5,27010.5,
104.505,2.0704646,3.6459464,12.16272,-0.11818968,-0.46318424,0.113717672,-1408.0,2556.5,26498.5,
104.623,1.4958563,1.3930025,11.272077,-0.21744696,-0.23509238,-0.108245576,2432.0,5629.5,24194.5,
104.744,2.1375022,2.6068628,8.233835,0.36090988,-0.186462968,-0.4149439,5248.0,5885.5,22146.5,
104.861,1.9818792,3.7512912,7.7909068,0.0354259468,0.033501808,-0.455446168,5504.0,253.5,20098.5,
104.987,2.0297632,1.9628224,5.911459,0.4796189,0.11130885,-0.250803,5248.0,-3586.5,19329.5,
105.102,0.483108936,6.0832432,13.431646,-0.2956537,0.5047407,-0.043095496,3200.0,-9730.5,18049.5,
105.219,-0.74032816,3.7034072,8.825203,-0.18960162,0.4132108,0.468246,-3456.0,-6147.5,22913.5,
105.334,0.81829716,3.2389322,8.437342,-0.2502218,0.07586934,0.7409703,-5504.0,-1027.5,25217.5,
105.448,1.0744767,3.1144336,7.06785836,-0.07462306,-0.06349054,0.65556916,-4736.0,5372.5,25474.5,
105.571,1.4695201,3.6842536,10.987166,-0.34628152,-0.21031137,0.4182843,-1920.0,10492.5,24962.5,
105.690,1.0768709,1.79283432,13.520232,-0.14123868,-0.091602328,0.05349715,128.0,17149.5,22402.5,
105.808,2.0465226,2.2620978,8.980825,0.4519068,-0.16221488,-0.22335736,1664.0,18173.5,21378.5,
105.924,1.73288232,2.3554716,7.2713656,0.2318088,-0.022455312,-0.06494542,2688.0,14333.5,19074.5,
106.041,1.3617809,1.5318663,7.2450296,0.19277204,0.020445146,-0.009654457,2176.0,11261.5,18050.5,
106.165,2.192569,5.199783,11.090117,0.197568368,0.25200104,0.22949562,1920.0,7933.5,17794.5,
106.282,-0.66610784,2.3075876,11.796407,-0.36613296,0.68486936,0.44919396,-3456.0,11516.5,19842.5,
106.400,1.0792651,3.6674944,8.554658,-0.16548677,0.1507453,0.62066256,-9856.0,17404.5,23938.5,
106.517,1.0433521,2.573344,6.9553316,-0.1840059,0.15314346,0.547785,-12160.0,23548.5,24450.5,
106.632,1.3569925,3.059367,8.255383,-0.210652132,-0.08653954,0.34127664,-15744.0,28156.5,24962.5,
106.749,0.33227424,2.1304166,13.716557,-0.013869613,-0.47823936,0.051898376,-14464.0,32252.5,22402.5,
106.873,2.5660644,1.4839821,8.758165,0.060739884,-0.16914292,-0.34259932,-10880.0,-32515.5,20866.5,
106.990,1.68020984,2.3051934,8.437342,0.11096806,0.08066566,-0.4149439,-8832.0,30716.5,19074.5,
107.107,0.17425692,6.674611,9.852315,0.008513242,-0.041640616,-0.29237116,-9344.0,28924.5,20098.5,
107.222,1.433607,1.26611,7.3671336,0.5895347,0.0782675,-0.07427161,-10112.0,27132.5,20098.5,
107.335,-0.49611956,3.712984,13.958371,-0.272205,0.540047,0.055762084,-11392.0,21244.5,20098.5,
107.456,0.933218832,3.509477,8.33918,-0.113260104,0.15181116,0.4285431,-16768.0,24316.5,22658.5,
107.573,1.0170159,2.3865962,7.687957,-0.026793032,-0.051366492,0.30903468,-18048.0,28156.5,24450.5,
107.689,1.4360012,2.5685556,7.807667,0.034893036,-0.10932207,0.07188307,-17024.0,28668.5,24450.5,
107.805,2.8557628,3.631581,12.375804,-0.25701666,-0.3799147,-0.209101632,-14464.0,28924.5,22402.5,
107.923,1.4383954,1.2613216,11.1451848,-0.25648372,-0.073083184,-0.5082058,-11392.0,31740.5,19586.5,
108.047,2.2021458,2.81037,8.839568,0.2945607,-0.17007552,-0.59320736,-7808.0,30460.5,19074.5,
108.162,1.6706331,4.766433,9.134054,-0.024528102,-0.14276312,-0.392561032,-5760.0,25852.5,19074.5,
108.279,1.9723024,0.897402736,5.356004,0.5397062,-0.04590401,-0.19711082,-2944.0,23804.5,17538.5,
108.395,1.5293751,4.5557428,13.4508,-0.12951435,0.25466568,-0.13062842,-1408.0,16892.5,16770.5,
108.511,0.119190268,2.9061382,9.596135,-0.18214066,0.46703624,0.2927805,-4992.0,17660.5,18818.5,
108.634,1.3354447,3.1958366,8.794078,-0.1315128,0.0168479016,0.3382123,-8064.0,20732.5,20610.5,
108.751,1.2899549,2.8486772,6.679998,0.007180929,-0.017525758,0.18646192,-6528.0,23036.5,22402.5,
108.868,0.9787087,3.7201668,8.099759,-0.34468276,-0.03377997,0.25907296,-5760.0,26108.5,21634.5,
108.983,3.62908984,3.95001,13.292783,-0.38505184,0.009253722,0.27732566,-6016.0,31996.5,21378.5,
109.100,1.1798216,1.1559765,11.269683,-0.14656792,-0.06349054,0.110520132,-3456.0,-26371.5,20610.5,
109.218,2.2835486,2.1040804,8.221864,0.2843019,0.0573502,-0.09012613,-2176.0,-25091.5,19074.5,
109.338,1.3593867,2.0322544,7.869916,0.055810332,0.1255646,0.048434364,-2176.0,-27395.5,21122.5,
109.454,2.1063776,3.5310248,7.48445,-0.026260122,0.25586474,0.14262885,-2944.0,-26115.5,21378.5,
109.571,1.0457463,2.9372628,10.75493,-0.019598558,0.55203784,0.2328264,-6528.0,-23555.5,23170.5,
109.687,-1.1114294,1.6611531,12.653531,-0.01666747,0.06201329,0.6377161,-12672.0,-21251.5,25986.5,
109.804,0.39212924,3.7177724,8.334392,0.41593438,-0.0616253,0.83303316,-14464.0,-20227.5,26754.5,
109.926,0.36818724,2.4847586,7.9752608,-0.15762614,0.058149588,0.86514184,-17280.0,-18691.5,29058.5,
110.044,1.5485287,3.61242736,8.269748,-0.34921264,0.2505355,0.7307116,-21376.0,-13827.5,29570.5,
110.160,1.0553231,1.84550668,11.573746,-0.0362524536,-0.13743387,0.5841571,-27520.0,-6659.5,30850.5,
110.279,1.72569968,1.4839821,11.947242,0.32547036,-0.14942468,0.30637004,-28800.0,-6403.5,31618.5,
110.398,2.1279254,2.0418312,7.910618,0.37916256,0.0999842,-0.097054148,-29056.0,-10499.5,-31869.5,
110.519,1.9723024,3.7297436,9.179544,-0.0429140184,-0.07348287,0.20871154,-29312.0,-16643.5,-29821.5,
110.638,2.240453,2.5685556,8.420583,0.60685476,0.3581863,-0.12010315,-29568.0,-19459.5,-27005.5,
110.754,-1.3364844,1.8790254,13.438829,-0.34441632,0.45291376,0.15195504,30848.0,-25091.5,-24701.5,
110.872,-0.055586456,4.258862,8.279325,-0.104999768,0.1396871,0.37538384,24448.0,-22531.5,-24445.5,
110.988,-0.16571975,2.1711182,9.292072,-0.015201926,0.010719266,0.5488509,22144.0,-21507.5,-23933.5,
111.111,2.384105,3.9308564,8.540293,0.16346116,0.031236876,0.37658292,20608.0,-23043.5,-22909.5,
111.227,0.4112829,3.844665,8.540293,-0.17534588,-0.6137355,0.3665906,21120.0,-25347.5,-22653.5,
111.341,0.5884538,2.1950602,12.416505,-0.19359856,-0.19872024,0.05656147,24960.0,-23555.5,-24189.5,
111.458,2.4463544,2.2142138,8.652821,-0.038517384,6.0766936e-05,-0.31688568,26752.0,-21763.5,-23677.5,
111.581,1.4168476,2.561373,8.724647,0.028231472,0.1375554,-0.33593776,25984.0,-23299.5,-23165.5,
111.702,1.826256,1.5582025,7.156444,0.01397571,-0.390706432,0.31316484,25216.0,-24323.5,-22653.5,
111.818,2.4152298,2.1830892,7.29530736,0.78831568,-0.198986708,-0.044294576,29568.0,-29699.5,-21885.5,
111.938,1.0241985,3.42568,13.364609,0.008779705,0.9158923,-0.06374634,28544.0,27388.5,-21629.5,
112.052,0.37058144,3.5310248,8.334392,-0.26874096,0.393359432,0.4992889,18560.0,27132.5,-19837.5,
112.169,0.7249233,3.0138772,8.3990344,-0.3245648,0.2462721,0.71006068,13184.0,30460.5,-20349.5,
112.284,2.3434036,3.7752332,8.604936,-0.060766996,0.065610532,0.6835476,10880.0,32764.5,-19325.5,
112.405,0.760836336,3.6243984,10.115677,-0.10206871,-0.53353036,0.48236852,10368.0,31740.5,-20605.5,
112.524,1.2947433,1.5725677,13.388551,-0.2423612,0.051354796,0.057360856,14720.0,32508.5,-21629.5,
112.641,2.5876122,2.0968978,8.21947,0.461099736,-0.14156406,-0.36245076,15232.0,-30979.5,-20093.5,
112.758,1.5485287,2.3075876,7.4030468,0.13215182,-0.0068672598,-0.19391328,16512.0,29436.5,-18557.5,
112.878,1.8334386,2.3219528,7.386287,0.203164068,-0.039375676,-0.01871418,17792.0,25852.5,-18557.5,
113.001,2.2955196,5.7815744,11.161943,-0.008806825,0.31302094,-0.0817325536,18304.0,20732.5,-17789.5,
113.120,-0.71878032,2.903744,11.18828,-0.25355262,0.51593216,0.22270082,11904.0,22012.5,-17789.5,
113.236,1.160668,4.488705,8.3990344,0.0574091,0.011785116,0.5231373,6528.0,23804.5,-17277.5,
113.350,1.0577173,2.666718,7.48445,-0.00028002262,0.11010977,0.5401908,8320.0,22524.5,-16765.5,
113.465,1.4264244,3.358642,7.8411852,-0.030789972,-0.035112284,0.431474168,7808.0,22012.5,-16509.5,
113.589,2.276366,3.023454,13.678249,-0.17507942,-0.22909696,0.23069468,9856.0,22268.5,-17789.5,
113.705,1.9651198,1.4097619,9.418964,-0.062232554,-0.19632208,-0.2717203,13952.0,25084.5,-17021.5,
113.823,2.5062094,2.834312,8.250594,0.13868016,-0.10345991,-0.3092915,17280.0,25084.5,-16765.5,
113.939,2.300308,5.2213308,8.897029,-0.07249136,-0.03751044,-0.3176851,18816.0,24316.5,-15997.5,
114.053,1.6610563,2.1328108,6.351992,0.47642136,0.056550812,-0.24760546,19584.0,24572.5,-17021.5,
114.176,-2.0571392,9.408791,13.1515256,-0.3733275,0.4850225,-0.16500208,19584.0,18428.5,-17277.5,
114.293,0.006662786,4.392937,8.662397,-0.21145154,0.25959522,0.28465336,13184.0,22268.5,-17021.5,
114.409,0.83505656,2.9228976,9.55304,-0.10579915,-0.06535577,0.42840988,11136.0,25340.5,-16509.5,
114.525,1.5317693,3.164712,6.2873488,0.0684673,-0.1771368,0.38337772,12928.0,25340.5,-17021.5,
114.640,1.5604997,3.4472276,8.956883,-0.39917432,-0.3014415,0.3424757,15488.0,26364.5,-16253.5,
114.756,2.8773104,2.597286,14.358203,-0.12271954,-0.17460538,-0.1872517,19840.0,31740.5,-17021.5,
114.879,2.6761976,1.3666663,8.609724,0.187176332,-0.08547369,-0.51659936,21888.0,-31491.5,-17533.5,
114.996,1.8645632,2.3027992,8.614512,0.06646883,-0.03857629,-0.347928568,23424.0,31228.5,-17277.5,
115.112,2.2117226,6.351394,8.873087,-0.022129938,-0.26506936,-0.211633008,24704.0,29436.5,-16765.5,
115.230,2.8677336,0.906979568,7.580218,0.61538152,0.15847272,-0.084663648,27776.0,28156.5,-18301.5,
115.347,1.826256,2.0490138,14.5449508,-0.3814546,0.7401603,0.008198529,24448.0,22780.5,-17789.5,
115.469,0.94758404,3.164712,7.60416,-0.0040104984,0.1362231,0.6792843,15488.0,26364.5,-17021.5,
115.585,1.71372868,2.2908282,7.82682036,-0.05970116,0.051887716,0.6604986,13696.0,26620.5,-17277.5,
115.703,2.8150614,3.3538536,8.48762,0.08445504,0.13129354,0.32955226,12928.0,25852.5,-16765.5,
115.819,1.3474157,3.7465028,10.065399,-0.23077006,-0.33261764,0.27785856,12160.0,24572.5,-17277.5,
115.938,1.160668,2.5278542,13.065334,-0.16668584,-0.24308626,0.10399179,14976.0,27644.5,-17533.5,
116.061,3.0784236,1.730585,7.8818872,0.13508292,-0.14795914,-0.51233596,18816.0,30972.5,-17277.5,
116.181,1.9651198,2.4991238,7.687957,-0.0807517,0.09385556,-0.61559016,19840.0,29180.5,-17533.5,
116.295,1.1415144,0.401803016,8.169191,-0.151231,-0.086273068,-0.16939872,18816.0,30972.5,-17277.5,
116.411,2.6953512,2.6739006,9.2394,0.36930344,0.0637453,-0.160339,18816.0,30460.5,-17789.5,
116.525,-1.09467,2.834312,13.237717,-0.2552846,0.57522004,0.168076016,17536.0,28924.5,-19837.5,
116.647,0.5453582,3.9787404,7.99920236,-0.13764144,0.15047884,0.56190752,11136.0,32508.5,-18813.5,
116.765,0.8661812,1.72340232,8.296084,-0.091410208,0.08839308,0.54751856,8064.0,-31235.5,-19325.5,
116.881,1.2181289,2.8391004,8.320026,0.09564647,-0.13317048,0.33235016,7296.0,-29187.5,-19581.5,
116.997,2.60916,2.0897152,13.311936,-0.19093393,-0.248282268,0.22616484,9600.0,-28419.5,-20861.5,
117.115,2.0656762,0.8136057,9.517127,0.12895428,-0.22629912,-0.14901434,10880.0,-25603.5,-19837.5,
117.254,1.6227488,2.1639354,7.8986468,0.13028659,0.04122922,-0.22242476,12928.0,-26627.5,-19325.5,
117.371,-1.8727856,10.105503,8.473255,-0.016001314,-0.13063908,0.1556855,12416.0,-27139.5,-18813.5,
117.488,1.7616126,2.6403816,8.049481,0.6135163,0.050422176,0.34860436,13696.0,-28419.5,-17021.5,
117.604,-0.429081968,2.738544,13.82669,-0.24742396,0.7620102,0.35313424,10112.0,32508.5,-16509.5,
117.721,0.18383372,3.8877608,8.140461,-0.028924748,0.390828,0.7136579,-384.0,-31492.5,-17021.5,
117.836,0.66746248,2.1567528,8.049481,-0.15482826,0.23188312,0.98451704,-6016.0,32507.5,-14973.5,
117.959,0.942795664,2.3818078,7.764571,0.17305382,0.15314346,0.6732889,-9856.0,30459.5,-17021.5,
118.076,4.0744116,4.206189,13.544174,-0.20718812,-0.3366146,0.6764864,-9088.0,26619.5,-15229.5,
118.192,0.33706264,1.3451185,12.830702,-0.23849748,-0.08014444,0.34913728,-6272.0,26363.5,-13949.5,
118.309,2.6067658,1.6396053,8.183557,0.09124984,0.12996122,0.06562119,-5760.0,27899.5,-12925.5,
118.425,1.70894032,2.1735124,9.143632,0.0382238168,0.33487088,-0.015783094,-8064.0,26875.5,-11901.5,
118.550,5.0225152,-1.6212974,5.9593432,0.2637843,-0.240021932,0.49902244,-11392.0,25083.5,-13181.5,
118.668,3.6147246,6.837417,9.902594,0.52172,0.06521084,0.0865385,-8064.0,16891.5,-12157.5,
118.782,-1.295783,2.7481208,12.114836,-0.06263225,0.65715724,0.47917096,-10368.0,8699.5,-13437.5,
118.899,1.4623375,4.2253428,7.9273768,-0.360936936,0.39748956,0.87326892,-16768.0,7163.5,-15229.5,
119.018,0.1646801,1.8287473,7.9537132,-0.25701666,0.26905464,0.9747911,-19072.0,7931.5,-16509.5,
119.141,1.8190734,2.846283,8.394246,-0.07622181,-0.07894536,0.73750632,-20352.0,5371.5,-16509.5,
119.255,4.4167824,2.8271294,13.745287,-0.27979916,-0.3889745,0.48516636,-14976.0,3579.5,-15741.5,
119.372,1.907659,0.30603498,11.276865,-0.12645002,-0.054697268,-0.09572183,-9600.0,4859.5,-14717.5,
119.489,2.7528122,1.0841506,9.033498,0.22341522,-0.15568656,-0.33433896,-7552.0,5371.5,-14205.5,
119.606,2.3649514,2.3147702,8.31045,0.181713852,-0.08547369,-0.37270956,-5248.0,3579.5,-14461.5,
119.728,9.442212,-2.8567054,4.70957,-0.042647556,-0.10132821,-0.024842818,-4480.0,3323.5,-13693.5,
119.845,2.8030904,4.5916556,10.745353,0.4460446,0.13182646,-0.21682904,-384.0,251.5,-14461.5,
119.965,1.3952998,0.56939716,12.143566,0.09671232,0.5231266,0.26120466,-2432.0,-5636.5,-17534.5,
120.081,-0.103470504,3.760868,7.7669656,-0.38252044,0.8832507,0.192190868,-8576.0,-7684.5,-18814.5,
120.200,0.28917858,1.9652166,7.869916,-0.22983743,0.370443568,0.66143124,-16512.0,-4356.5,-20094.5,
120.319,0.4256481,2.927686,8.305661,0.24433252,-0.25947368,0.5353945,-18048.0,-5124.5,-21886.5,
120.439,3.3010842,3.356248,12.890557,-0.15589412,-0.364326668,0.20951092,-9344.0,-8964.5,-21118.5,
120.557,1.5269809,1.4959533,12.840279,-0.25688338,-0.11092085,0.04150634,-2176.0,-8196.5,-20862.5,
120.675,2.2093284,1.5438373,8.372699,-0.10126932,0.1362231,-0.20763608,-896.0,-4100.5,-18302.5,
120.791,1.68020984,1.86466032,8.346362,0.1742529,0.026440552,-0.26945536,-1408.0,-2308.5,-17534.5,
120.909,2.063282,2.1304166,7.5371224,0.3916863,-0.28318882,-0.12996226,-896.0,-6148.5,-18558.5,
121.031,3.0449048,3.7153784,7.333615,-0.11312689,0.16833183,-0.36751356,2688.0,-11267.5,-20350.5,
121.150,-0.57991668,4.412091,11.621631,0.16545964,0.22189078,-0.20337268,-2432.0,-11012.5,-20862.5,
121.267,-0.29740084,0.9189506,12.342285,-0.017333626,-0.11172025,0.56057524,-4480.0,-15620.5,-24190.5,
121.384,2.0800414,3.75368536,7.592189,0.206494868,-0.10545838,0.5096809,384.0,-20739.5,-26238.5,
121.503,0.94518984,2.2692804,8.157221,-0.20758782,0.27118636,0.49862276,2688.0,-25091.5,-25982.5,
121.625,2.1087718,3.7943868,8.059058,-0.28366286,0.10038389,0.27013116,640.0,-25091.5,-27774.5,
121.742,2.7480238,3.0450018,10.017515,-0.12671645,-0.018591612,0.230161776,-896.0,-23300.5,-27518.5,
121.861,0.50465676,-0.4744748,12.368621,-0.32136726,0.22029202,-0.13689029,-3200.0,-20996.5,-27006.5,
121.979,2.6666208,1.5582025,9.816402,0.420464232,0.011785116,-0.6311782,-7552.0,-18436.5,-27262.5,
122.096,1.5892301,2.252521,7.45332536,0.212623484,0.058815744,-0.8043788,-11904.0,-17156.5,-29822.5,
122.220,1.2923491,3.4951116,8.073423,0.25046116,0.028971944,-0.62118584,-16512.0,-14596.5,-30590.5,
122.337,-0.07952845,3.320335,12.289613,0.240468832,-0.09453341,0.174471108,-17792.0,-14340.5,-32638.5,
122.455,1.0625057,3.61961,8.451707,0.0480829168,-0.28278916,0.7219183,-14464.0,-16132.5,31361.5,
122.572,0.9763145,1.9149384,7.8411852,-0.23943008,0.08905923,0.5228708,-8576.0,-17668.5,-32126.5,
122.687,2.0656762,3.2892104,6.6512676,-0.33016056,-0.0680203968,0.46891216,-5760.0,-16644.5,-31614.5,
122.812,2.0896182,3.145558,11.545015,-0.32123404,0.1362231,0.038841712,-4224.0,-12804.5,-31102.5,
122.935,1.955543,1.4001851,12.296795,-0.0010794252,0.058948976,-0.33420576,-7296.0,-8452.5,-31614.5,
123.052,1.75443,1.4073677,9.215458,0.38169396,-0.05616281,-0.6822058,-7808.0,-8196.5,-32382.5,
123.167,1.6059894,2.3578658,5.3248796,0.32680268,-0.1418305,-0.6317111,-9856.0,-10244.5,31105.5,
123.283,1.0720825,3.487929,9.146026,0.095113544,0.12623074,-0.30129764,-10624.0,-10756.5,30593.5,
123.400,-0.34289068,0.7752985,15.720504,-0.05770269,0.03789844,0.4754405,-13696.0,-9732.5,29057.5,
123.521,1.8645632,4.0433836,8.116519,0.0193049616,-0.25294536,0.465048436,-10880.0,-11012.5,27521.5,
123.640,0.056941032,1.83592984,7.1588384,-0.084215688,0.26132724,0.49742368,-7296.0,-11524.5,28545.5,
123.758,2.3098848,3.4472276,7.774148,-0.428218784,0.010985728,0.39217096,-8064.0,-10500.5,28801.5,
123.876,2.5205746,2.5206716,13.599241,-0.20119272,0.032968884,-0.05641862,-7552.0,-5380.5,30081.5,
123.993,2.0776472,-0.0004228577,10.520297,0.395949668,-0.2617386,-0.3681797,-7808.0,-1028.5,30337.5,
124.116,0.90209424,2.5063064,7.7071108,0.34558828,0.030437488,-0.5036759,-8320.0,-2820.5,29825.5,
124.233,1.70415184,3.6435524,5.3440332,0.30481952,-0.05429758,-0.35765444,-9088.0,-4100.5,29825.5,
124.350,1.6514792,7.51737,11.770071,-0.2113183,0.31781728,0.081875408,-10112.0,-4356.5,29057.5,
124.465,-2.2367044,-1.2789266,13.21138,0.054877712,-0.088538008,0.8313011,-12160.0,-4356.5,28545.5,
124.582,1.7400648,3.8231172,8.401429,-0.12138723,0.03683259,0.4746411,-8064.0,-8964.5,30081.5,
124.704,0.9811029,2.7576976,6.608172,-0.13924019,0.10291528,0.55631184,-7552.0,-9220.5,31617.5,
124.820,2.360163,2.8295236,8.875481,-0.40836728,0.031903032,0.32755384,-5760.0,-8452.5,-31870.5,
124.936,1.1343317,0.7848753,14.690997,-0.33668888,0.218027068,-0.18392092,-6016.0,-5892.5,-30334.5,
125.054,3.05927,1.8095937,11.161943,0.14281033,0.009919878,-0.382169,-9088.0,-1796.5,-28798.5,
125.171,1.2492535,2.3315296,7.5179688,0.21781951,-0.041907072,-0.31715214,-12160.0,-2564.5,-28798.5,
125.296,2.6474672,3.1000684,6.148485,0.3418578,-0.08907093,-0.31009088,-11392.0,-5892.5,-27518.5,
125.411,0.478320536,7.9579032,12.55058,-0.06169963,0.28184484,-0.04109703,-13952.0,-8196.5,-27262.5,
125.527,-0.47696596,-0.32603428,11.375028,0.116563776,-0.1571521,0.7409703,-16768.0,-11268.5,-29566.5,
125.644,1.87414,2.8510714,7.058282,-0.14869962,0.11623841,0.47064418,-12416.0,-18180.5,-27774.5,
125.761,1.0026507,2.5398252,6.92660036,-0.24875628,-0.04097446,0.59681416,-10624.0,-20484.5,-28286.5,
125.885,3.9810376,3.42807432,11.999914,-0.7327854,0.33460438,0.2157728,-7808.0,-18436.5,-26750.5,
126.002,-0.7666643,-2.2868856,14.662267,0.14960512,-0.22816436,-0.3912287,-9088.0,-10500.5,-24958.5,
126.119,3.0808176,1.0721796,9.708663,0.207427468,0.09398879,-0.4602425,-6272.0,-11780.5,-25214.5,
126.236,0.9763145,1.9149384,5.9066708,0.2548578,-0.18153342,-0.50567436,-8320.0,-13060.5,-25470.5,
126.352,2.6067658,3.5621492,8.576205,0.27817328,0.08319706,-0.5020771,-7808.0,-15108.5,-25982.5,
126.474,2.0489168,3.5262364,11.978366,0.47588844,0.014849434,0.14929042,-10112.0,-18180.5,-29822.5,
126.592,1.2133405,1.4337039,7.290519,-0.03585276,-0.07814597,0.61067016,-10624.0,-21508.5,-29054.5,
126.708,1.5269809,2.3339238,7.932165,-0.12338568,-0.035245516,0.6210622,-6016.0,-22788.5,-29054.5,
126.824,2.3266442,2.9707816,7.240241,-0.36360156,0.09478818,0.55431336,-2176.0,-22532.5,-27262.5,
126.940,4.4646664,3.8374824,11.458824,-0.2956537,0.12036858,0.06562119,-640.0,-18948.5,-25726.5,
127.057,-1.7842002,-0.8886717,13.082093,0.227012468,-0.1234446,-0.5304554,-2944.0,-14596.5,-25214.5,
127.179,3.3058726,1.73776768,8.485226,0.14041216,-0.09866358,-0.4990128,-2176.0,-15108.5,-25726.5,
127.296,1.8118908,2.168724,6.1173608,0.13534938,-0.12957322,-0.6608888,-3456.0,-15108.5,-26238.5,
127.412,2.8318208,7.881289,10.422135,0.199700068,0.34419704,-0.6671507,-7040.0,-14084.5,-25470.5,
127.530,1.1103897,2.939657,13.678249,0.2873662,0.095321108,0.15475288,-11648.0,-16644.5,-28286.5,
127.647,1.4743085,3.370613,7.570641,0.14094509,-0.2476161,0.48516636,-12416.0,-20228.5,-30334.5,
127.769,0.7416827,2.0011298,6.8188616,-0.053838984,-0.020590074,0.46891216,-9088.0,-22020.5,-28286.5,
127.885,2.4942384,3.5142652,6.474097,-0.28233056,-0.06349054,0.430541568,-6528.0,-23812.5,-27262.5,
128.001,5.74317,3.94282736,16.654242,-0.5491927,0.2697208,-0.12423332,-7040.0,-19972.5,-25214.5,
128.117,2.5109978,-2.3706824,11.770071,0.59712884,-0.6298565,-0.86819656,-10880.0,-15620.5,-24958.5,
128.234,2.6259194,1.98437036,7.048705,-0.08608095,-0.06349054,-0.395891816,-9088.0,-19204.5,-23166.5,
128.357,2.860551,2.6284106,6.095813,0.12882104,-0.19205868,-0.71951052,-10368.0,-17668.5,-21630.5,
128.473,1.69936352,4.4839168,11.396575,0.123625024,0.014849434,-0.3732425,-12928.0,-17156.5,-21630.5,
128.592,-1.2431104,-0.7809326,14.018226,-0.3871835,0.14581573,0.3266212,-15744.0,-18692.5,-22654.5,
128.708,1.5197983,7.4838516,7.704716,0.41833252,-0.1682103,0.5591097,-13696.0,-23300.5,-23678.5,
128.824,0.7273175,2.6834774,6.799708,-0.199460732,0.11410671,0.5906855,-10368.0,-28676.5,-22398.5,
128.947,2.9922324,3.95240416,6.351992,-0.4343474,0.07054009,0.6375829,-8064.0,-29444.5,-22142.5,
129.063,5.372069,1.2158315,12.473966,-0.4091667,-0.2813236,0.12424294,-7040.0,-24580.5,-19070.5,
129.179,0.13355547,1.5653851,10.991955,0.26698184,-0.32608932,-0.66035584,-4736.0,-21508.5,-17790.5,
129.296,2.963502,1.5749619,8.118913,-0.21491556,0.11317409,-0.32154876,-3200.0,-23044.5,-17278.5,
129.413,2.123137,2.453634,6.385511,0.048882304,0.044959696,-0.6267816,-5760.0,-19972.5,-15230.5,
129.534,2.8006962,5.4415976,10.290454,0.337061468,0.052420644,-0.32727772,-8064.0,-20740.5,-16766.5,
129.653,4.5891648,9.861294,14.882533,0.25285932,0.5193961,-0.07880147,-9088.0,-25348.5,-20350.5,
129.768,0.1527091,1.5725677,6.4262124,0.057942032,0.1532767,0.899249,-13952.0,-28164.5,-24702.5,
129.883,1.7448532,3.2293554,8.60733,-0.57010996,0.25439918,1.0326135,-8064.0,-30724.5,-25470.5,
130.000,2.4631138,2.0705616,6.694363,-0.33095998,0.03696582,0.7965278,-3200.0,-25604.5,-23422.5,
130.115,6.1166652,-0.8886717,13.266447,-0.3035143,-0.200185784,0.2831878,384.0,-21763.5,-22398.5,
130.238,-0.26627618,-0.82402824,10.264118,0.27537544,-0.465848868,-0.56736048,4224.0,-17411.5,-22910.5,
130.357,3.214893,1.2565332,8.264959,-0.15269656,0.070806552,-0.419074036,7040.0,-18179.5,-23166.5,
130.474,2.3266442,2.6020744,6.871534,0.021036968,-0.08014444,-0.6804738,5760.0,-15619.5,-21374.5,
130.589,2.7432354,5.1566872,12.500302,0.4429803,-0.044571696,-0.46970192,3200.0,-15107.5,-21374.5,
130.706,0.45437852,3.607639,14.42524,-0.28872568,0.280779,0.4029627,2944.0,-20227.5,-25726.5,
130.828,2.5469108,4.5533484,7.2809424,0.4746893,-0.105058684,0.4839673,3200.0,-22275.5,-27262.5,
130.945,1.0601115,1.82395884,6.907447,-0.39344544,0.39748956,0.6283899,4736.0,-25603.5,-27262.5,
131.063,2.7456296,3.2509032,7.7190816,-0.36773176,0.025641164,0.76068856,4992.0,-21507.5,-25726.5,
131.180,6.111877,1.74734452,14.693391,-0.12751586,0.00738848368,0.15368703,6784.0,-17155.5,-24958.5,
131.300,0.70816384,1.72579652,9.538674,0.40913956,-0.48636644,-0.24174328,5760.0,-16643.5,-24190.5,
131.423,3.0999712,0.6436174,6.9050532,-0.11605798,0.18578512,-0.021645268,8832.0,-19971.5,-25214.5,
131.539,2.5157862,2.4679992,6.4070588,0.08405535,0.2530669,-0.4687693,6528.0,-18947.5,-24446.5,
131.655,0.933218832,1.75452708,11.403758,0.35091752,0.031903032,0.0808095536,896.0,-20483.5,-25726.5,
131.775,-1.3388786,-1.93493776,12.380592,-0.20478998,0.16300258,0.7400377,1920.0,-26115.5,-28798.5,
131.894,2.5421224,4.21816,7.7933016,0.13868016,0.16260287,0.6602322,4736.0,-28931.5,-29310.5,
132.015,1.8286502,1.1392171,7.762177,-0.41076548,0.22468864,0.764419,5504.0,-29699.5,-29054.5,
132.131,4.0528636,3.2628742,8.832385,-0.3755924,-0.16634504,0.59867936,6784.0,-25859.5,-26750.5,
132.247,1.6203546,1.0219012,15.272788,-0.025860414,-0.070018868,-0.2337494,9600.0,-22019.5,-24190.5,
132.364,2.7480238,2.1902718,7.8986468,0.28869856,-0.31596376,-0.5551032,8576.0,-22531.5,-23934.5,
132.481,2.8892816,1.4552517,8.20271,-0.04744388,0.26652324,-0.4579776,6784.0,-24067.5,-23934.5,
132.602,2.1542618,1.5821445,5.899488,0.26311816,-0.03537874,-0.46477236,1152.0,-24579.5,-23166.5,
132.718,2.4008646,2.0849268,11.746129,0.18224678,0.0825309,-0.080533468,-1408.0,-27396.5,-24958.5,
132.834,0.049758436,-1.6212974,10.537057,0.16319472,0.39349264,0.19418934,-4224.0,-32004.5,-27006.5,
132.952,2.2979138,5.4559628,8.255383,0.09817786,-0.020856536,0.28278812,-5760.0,25851.5,-30078.5,
133.069,0.9811029,2.762486,6.2370704,-0.27966596,0.05988159,0.51394424,-3200.0,23291.5,-30590.5,
133.184,5.8149964,4.7400968,12.5386092,-0.390914016,-0.0846743,0.3551327,1152.0,24828.5,-29566.5,
133.307,-2.8951096,-2.3682882,12.471572,0.19037388,-0.037910132,-0.6790082,1920.0,27900.5,-26750.5,
133.424,5.288272,3.236538,9.119689,-0.0441131,-0.3294201,-0.30009854,2432.0,26364.5,-29310.5,
133.537,2.3960762,1.71861392,6.9936384,-0.16375478,-0.0058014056,-0.6205197,2688.0,27900.5,-27518.5,
133.656,2.9491368,5.364983,10.364675,0.40900636,0.021644228,-0.700058736,-896.0,30459.5,-26750.5,
133.774,4.2994668,7.943538,14.403692,0.4083402,0.055618192,-0.034035772,-4224.0,27643.5,-29566.5,
133.895,1.3905114,0.41616824,8.185951,0.2531258,-0.17487186,0.41468704,-2688.0,25339.5,-32126.5,
134.012,2.738447,1.8479009,7.3791048,-0.57304116,0.27371772,0.31756148,1920.0,23548.5,-32638.5,
134.130,1.70654608,2.051408,6.478885,-0.231302992,-0.103992832,0.32928584,1920.0,30204.5,-30078.5,
134.255,6.0568104,0.42574504,10.316791,-0.36826468,-0.28651964,-0.008322144,5760.0,-29443.5,-28542.5,
134.372,-1.6740668,-0.9245847,10.97759,-0.15442858,-0.13823328,-0.5589669,8832.0,-23043.5,-26750.5,
134.493,5.2284164,2.123234,9.150814,0.07006607,-0.21257628,-0.4210725,10368.0,-18947.5,-25982.5,
134.608,2.6522556,2.453634,6.799708,0.08405535,0.2933027,-0.6997923,9088.0,-17667.5,-25214.5,
134.722,3.6841566,5.1614756,8.250594,0.25432488,0.02723994,-0.343132268,2688.0,-17155.5,-25470.5,
134.840,3.0042034,3.284422,11.068569,0.5281151,0.13022768,-0.174328268,-128.0,-19716.5,-25470.5,
134.957,0.5980306,-0.9964108,8.145249,0.32187312,-0.036311364,0.6482414,-2432.0,-23812.5,-27262.5,
135.077,2.5516992,4.510253,7.55148736,-0.33309168,0.28357684,0.5267345,640.0,-31235.5,-29310.5,
135.194,1.6179604,2.147176,6.160456,-0.2719385,0.11250793,0.6923409,640.0,-30723.5,-27006.5,
135.309,-1.7147684,4.47434,11.954424,-0.36373484,-0.10878916,0.5365936,4480.0,-28675.5,-26238.5,
135.424,-1.520838,0.042672776,10.551422,0.25245964,-0.39110612,-0.47156716,9344.0,-28419.5,-26750.5,
135.541,5.994561,2.5517962,8.43016,-0.1652203,-0.21577384,-0.3066269,14464.0,-32003.5,-27518.5,
135.656,4.019345,1.5965097,7.63528436,-0.24169503,0.3473946,-0.906833664,13952.0,-28931.5,-25470.5,
135.781,3.13349,4.71376,7.8986468,0.7115745,-0.11025469,-0.9102977,6272.0,-28163.5,-25470.5,
135.894,4.6107124,8.865306,13.800354,0.30362044,0.20044054,-0.191115408,3200.0,30460.5,-30334.5,
136.012,1.5174041,-2.5239114,9.878652,0.17691752,0.007122021,0.4750408,1408.0,30716.5,-31102.5,
136.128,0.69619288,3.2868162,6.909841,-0.3819875,0.37923688,0.23695656,3712.0,27900.5,-30590.5,
136.244,1.967514,2.2740688,6.256224,-0.23569964,-0.059093908,0.48649868,1920.0,31996.5,-30590.5,
136.365,6.585929,3.188654,12.739722,-0.4816445,0.044027076,0.23549102,4992.0,-28931.5,-26494.5,
136.480,-2.7730056,-1.2741382,11.386998,0.03276132,-0.06921948,-0.43439564,6784.0,-22787.5,-25214.5,
136.597,3.437554,3.0258482,8.123701,0.14840604,-0.3568657,-0.39509244,8064.0,-22275.5,-23678.5,
136.712,0.049758436,0.7585391,8.746194,-0.27500284,0.35512204,-0.5108704,8064.0,-23299.5,-22654.5,
136.828,2.987444,5.2476672,8.221864,0.3569129,-0.11411841,-0.3050281,3200.0,-19971.5,-21118.5,
136.948,0.1670743,1.5414431,8.545081,0.680664836,0.2300179,-0.47876164,3712.0,-23299.5,-23166.5,
137.065,-1.0970642,0.70107824,9.950478,-0.10699825,0.17725832,0.6939397,640.0,-28931.5,-27006.5,
137.181,3.607542,4.5653196,7.34319168,-0.28699362,0.16326903,0.48729808,2176.0,-28931.5,-27262.5,
137.299,1.1415144,2.8654366,7.12531936,-0.25261998,0.4176075,0.65583556,640.0,-24579.5,-24958.5,
137.417,4.7184516,3.914097,11.422912,-0.45180064,-0.07774628,0.744834,640.0,-21251.5,-23678.5,
137.538,2.5301514,1.1703417,15.715715,-0.13764144,-0.13636802,-0.15207866,2688.0,-17667.5,-21630.5,
137.656,2.1039834,3.3754016,8.901817,0.32706912,-0.19285806,-0.62771416,3712.0,-18947.5,-21374.5,
137.773,2.0417342,3.77762736,7.762177,-0.0082739,0.31302094,-0.384567136,1152.0,-21251.5,-23934.5,
137.890,1.9052648,1.76649808,6.110178,0.25006148,-0.24468504,-0.06268049,-3200.0,-22276.5,-24446.5,
138.007,1.1319375,2.4392688,9.811614,0.37929576,0.09052478,-0.18045692,-1920.0,-24580.5,-24958.5,
138.123,-1.1928322,0.717837636,10.307214,-0.018133,0.261194,0.489563016,-5504.0,-30980.5,-28798.5,
138.246,2.2859428,4.476734,7.687957,-0.337088568,0.25426596,0.5596426,-3968.0,31739.5,-30590.5,
138.362,0.638732,1.78565168,7.264183,-0.388915552,0.2890393,0.63824904,-4736.0,-31236.5,-29566.5,
138.479,3.0903944,3.638764,8.063847,-0.4340809,-0.14715976,0.60733944,-3200.0,-28420.5,-27774.5,
138.594,1.5820475,2.3147702,13.539386,-0.30511308,-0.37964828,0.06162425,-128.0,-24068.5,-25214.5,
138.712,-0.67329052,1.0721796,8.758165,0.32040756,-0.4205503,-0.5173987,640.0,-18435.5,-23934.5,
138.834,2.1949632,0.6555884,8.45889,0.13907986,0.045359388,-0.3515258,2944.0,-20483.5,-22910.5,
138.948,2.4224124,2.3147702,6.4046644,0.24020236,-0.110387932,-0.57255644,2432.0,-22019.5,-24190.5,
139.067,2.1303196,5.484693,13.220957,0.444046136,0.28610826,-0.47383208,128.0,-25091.5,-26238.5,
139.186,-1.5423858,-3.1416154,11.54741,-0.33948672,0.09598726,0.29691064,-4480.0,-28932.5,-30590.5,
139.302,4.8668924,4.843047,8.569023,0.021170214,-0.060559444,0.25747418,-2432.0,-28676.5,-30590.5,
139.425,0.91645944,2.3506832,7.070253,-0.346548032,0.19391222,0.2012506,-2432.0,-27140.5,-29054.5,
139.542,4.155814,4.2444964,8.671974,-0.31137496,-0.36272788,0.4212154,-2432.0,-22788.5,-28030.5,
139.657,-0.433870368,2.501518,18.13386,-0.24302734,0.2023058,-0.195378816,384.0,-18691.5,-24446.5,
139.774,4.000191,1.74495024,8.844357,0.459634168,-0.6210633,-0.61598984,1408.0,-19203.5,-24958.5,
139.892,0.9906797,0.878249136,6.6895748,0.19357144,0.22988466,-0.46170804,2944.0,-23811.5,-25470.5,
140.016,2.810273,3.2173844,6.46452,0.10990221,0.09199032,-0.63903884,-1408.0,-25348.5,-26750.5,
140.131,0.918853664,4.28041,11.461219,0.5319788,0.2181603,-0.079467624,-6016.0,-26372.5,-27518.5,
140.247,-0.61343544,-0.71868332,10.065399,-0.14243777,0.12769629,0.7391051,-8832.0,-30980.5,-31870.5,
140.365,1.9052648,5.16387,8.499591,-0.027325972,0.055751424,0.48556608,-4480.0,31483.5,-31358.5,
140.480,1.1630622,2.5278542,6.01441,-0.24635814,0.07133948,0.5028861,-2432.0,31227.5,-31102.5,
140.601,3.63866668,3.9547984,9.756547,-0.50735816,-0.0612256,0.5147437,-128.0,-32260.5,-28030.5,
140.717,4.713663,3.413709,17.671778,-0.22983743,-0.028983646,-0.3296759,2176.0,-27139.5,-27006.5,
140.834,4.373687,2.36026,8.820415,0.23234172,-0.6333205,-0.427067936,3200.0,-25859.5,-25726.5,
140.949,1.2995317,1.0578144,6.5315576,0.194237584,0.13502401,-0.5168658,6784.0,-27907.5,-25726.5,
141.068,2.657044,2.8845902,5.7271056,0.24406608,-0.00793311,-0.65555952,3456.0,-29187.5,-27006.5,
141.183,3.4327652,4.653905,12.325525,0.21528812,0.375639632,-0.13742323,-1152.0,-30980.5,-28286.5,
141.308,-0.1226241,0.37307262,12.409323,-0.5193489,0.16393518,0.77640984,-4480.0,32251.5,-31102.5,
141.426,3.0281452,3.6339752,8.003991,-0.07568891,-0.15728532,0.49355992,-1920.0,-32004.5,-28542.5,
141.541,1.2133405,2.52546,6.4046644,0.043419824,-0.0015380084,0.29397956,1152.0,32508.5,-28286.5,
141.658,5.515721,5.257244,9.169968,-0.5357364,0.05854928,0.13503465,3712.0,32252.5,-28542.5,
141.772,-1.2119858,0.33715956,16.623118,-0.1882693,-0.1891276,-0.5889439,2688.0,-25603.5,-25214.5,
141.893,3.53811,4.117604,9.402205,0.240735292,-0.2939806,-0.5132686,5504.0,-24835.5,-24702.5,
142.010,1.0002565,1.5725677,6.502827,0.18211354,0.08972539,-0.4303987,5504.0,-26883.5,-24958.5,
142.127,2.9682904,4.689818,7.0798296,0.39874756,-0.21577384,-0.45224864,3968.0,-28675.5,-27006.5,
142.243,4.4407244,7.6275032,13.407704,0.3844918,0.43106384,-0.15341097,2432.0,-32003.5,-29054.5,
142.359,3.1670088,-3.38342968,7.762177,0.06393743,-0.14782591,0.76108824,-1664.0,32763.5,-30078.5,
142.483,4.182151,4.6610876,7.7095048,-0.2279722,0.39868868,0.49435934,4992.0,29692.5,-29566.5,
142.600,2.0560994,2.408144,5.746259,-0.2444929,0.10118328,0.57936084,4480.0,31740.5,-30078.5,
142.715,6.930694,5.1471104,13.18265,-0.7004102,0.23081728,0.28904998,6016.0,-29699.5,-27518.5,
142.831,-1.7746234,1.3068113,12.598465,0.26471692,-0.44493156,-0.759613168,5504.0,-23555.5,-24702.5,
142.950,4.210881,1.9245152,8.604936,-0.03132291,-0.020723306,-0.30436196,8576.0,-24579.5,-23678.5,
143.066,2.003427,1.934092,6.3783284,0.024101288,0.10438083,-0.576287,6784.0,-25347.5,-24702.5,
143.186,3.1263076,4.4336384,7.1732036,0.1695898,0.20843442,-0.61998684,2432.0,-24835.5,-24446.5,
