# epoch_start_s=1609459202
timestamp_s,accel_x,accel_y,accel_z,gyro_x,gyro_y,gyro_z,mag_x,mag_y,mag_z,wind_vane_deg
# wind_vane_deg is blank for the first 270 s, populated for the final 30 s
0.124,1.1247549,1.0937274,9.938506,0.03262809,0.008454334,-0.0057907504,-128.0,-771.5,27009.5,
0.240,1.0577173,0.9572578,9.878652,0.021703124,0.016048514,-0.0031261258,-384.0,-1539.5,27777.5,
0.357,1.0816593,0.9668346,9.897805,0.013576031,0.0044573956,-0.0060572124,128.0,-1282.5,27009.5,
0.474,1.1175723,0.99077668,9.955266,0.0155745,0.008587565,-0.0015273513,-128.0,-1539.5,28033.5,
0.595,1.1008129,1.0554202,9.881045,0.0049159976,0.0021924674,0.0018034298,-384.0,-2819.5,28545.5,
0.713,1.0672941,1.0817564,9.86668,-0.0012126416,-0.0003389269,-0.000727963636,-640.0,-2051.5,26753.5,
0.831,1.0888419,1.0266896,9.926536,-0.008140668,-0.00313678,0.0015369672,-640.0,-2819.5,27265.5,
0.946,1.0720825,0.99556504,9.931324,0.00065259636,0.003924474,-0.0060572124,-640.0,-1539.5,27265.5,
1.063,1.0170159,1.0099302,9.897805,0.0050492288,0.0064558648,-0.005124594,-384.0,-2307.5,26753.5,
1.186,1.0457463,0.99077668,9.938506,0.026499466,0.016314978,-0.004458438,-640.0,-2563.5,26753.5,
1.302,0.9715261,1.1080926,9.864286,0.028497934,0.0059229432,-0.006190444,-384.0,-2307.5,27265.5,
1.418,1.1008129,1.1104868,9.890622,0.036092104,-0.0004721582,-0.0025932006,-128.0,-3075.5,26497.5,
1.535,1.0481405,1.1942837,9.835556,0.047949688,0.03363504,-0.009654457,-640.0,-3075.5,26753.5,
1.651,0.82787392,1.1607649,9.885834,0.0495484616,0.03363504,-0.010853537,-1408.0,-4355.5,25985.5,
1.774,0.87815224,1.3020229,9.902594,0.0115775616,0.0043241644,7.142406e-05,-1152.0,-5123.5,27265.5,
1.891,0.957160864,1.3379359,9.893017,-0.01760009,-0.005534947,0.00087081176,-1408.0,-5635.5,27521.5,
2.008,1.5221925,2.2118196,9.876257,-0.15282978,-0.00939865,0.08054309,-1408.0,-5123.5,26753.5,
2.124,1.1415144,1.3714547,10.041457,-0.2975189,0.08013274,0.38710818,-1920.0,-2563.5,27777.5,
2.242,-0.1058647,-0.52475304,9.998362,-0.032122284,-0.20618118,0.4517253,-1920.0,3324.5,27778.5,
2.357,3.2699596,0.68192468,10.012727,0.214488732,-0.14236343,-0.05095614,384.0,5117.5,25986.5,
2.481,1.0601115,1.076968,9.940901,0.22874448,0.18391988,-0.06467896,1664.0,1789.5,26242.5,
2.596,0.83026816,1.87184284,9.814008,0.12229271,0.102648824,-0.027773906,-640.0,-1283.5,26497.5,
2.715,0.6530973,1.5629909,9.758942,-0.05104111,0.0024589264,-0.003925513,-1920.0,-1795.5,26497.5,
2.830,1.2372825,1.5917213,9.828373,-0.027592436,-0.12051351,0.047102052,-1152.0,-771.5,27265.5,
2.947,0.9643434,1.0793622,9.859498,-0.06489718,-0.00313678,0.015393018,128.0,-258.5,27009.5,
3.067,1.2899549,1.1751301,9.852315,0.031961932,0.0205783768,-0.006190444,-128.0,508.5,25730.5,
3.184,0.95476664,1.3642721,9.833161,0.016240656,0.023376234,-0.0048581316,-128.0,-515.5,26497.5,
3.302,1.0194101,1.2565332,9.864286,-0.013736367,-0.010864198,0.006599755,-128.0,-259.5,26497.5,
3.419,1.1774274,1.1679475,9.885834,-0.010538831,-0.0016712397,-0.0020602756,384.0,-514.5,26497.5,
3.537,1.0337753,1.1990721,9.909776,0.014641866,0.019246066,-0.0076559876,-384.0,-771.5,26753.5,
3.662,1.0648999,1.4049735,9.861892,-0.0153351568,-0.0062011032,0.0022031236,-640.0,-771.5,27265.5,
3.781,1.1822158,1.2445619,9.811614,-0.0038772672,-0.0034032464,0.0014037369,-384.0,-771.5,27009.5,
3.899,1.1175723,1.3546953,9.924141,0.0002528876,0.00738848368,0.00087081176,-384.0,-3.5,26241.5,
4.018,1.1319375,1.3331475,9.809219,-0.0082739,6.0766936e-05,0.0030025114,-384.0,-771.5,27009.5,
4.135,1.0122275,1.1847069,9.907382,0.0058486164,0.010053109,-0.005124594,-640.0,-771.5,27265.5,
4.252,1.0696883,1.2445619,9.888228,-0.0045434236,-0.0026038588,-0.0011276575,-128.0,-771.5,27265.5,
4.376,1.1870042,1.3283591,9.85471,0.001451984,0.0064558648,-0.0024599694,128.0,-770.5,27777.5,
4.493,1.2061579,1.3044171,9.842738,0.001451984,-0.0039361716,0.000337886632,-128.0,-1027.5,26753.5,
4.611,0.92124784,1.2445619,9.926536,0.0053156764,0.017380826,-0.00685660036,-128.0,-1027.5,27777.5,
4.729,1.1558796,1.4001851,9.835556,-0.011204988,-0.0072669532,0.004601286,128.0,-770.5,28289.5,
4.846,1.1032071,1.2828693,9.833161,0.006647989,0.0053900144,-0.0049913632,384.0,-770.5,27777.5,
4.968,0.904488464,1.2732926,9.895411,-0.017333626,-0.010597732,-6.180722e-05,-128.0,-1283.5,28033.5,
5.085,1.0888419,1.1727359,9.833161,-0.0044102072,-0.0016712397,-0.0020602756,-384.0,-1027.5,26753.5,
5.204,1.0481405,1.3139939,9.88344,0.0013187528,-0.0003389269,-0.0045916692,128.0,-1026.5,27265.5,
5.320,1.0074391,1.2924461,9.88344,-0.00933975,-0.0047355556,0.0015369672,-384.0,-1539.5,27265.5,
5.436,1.0936303,1.3068113,9.888228,0.004782766,0.014982665,-0.005124594,-128.0,-1027.5,26753.5,
5.558,1.0313811,1.3211765,9.852315,0.008513242,0.0076549464,-0.0035258192,128.0,-1538.5,27009.5,
5.675,1.0313811,1.2852635,9.921747,-0.003344342,0.0003272295,-0.0008611949,-896.0,-1539.5,26753.5,
5.791,1.0888419,1.3834257,9.926536,-0.0050763636,0.0049903208,0.0012705056,128.0,-1282.5,25985.5,
5.909,1.0481405,1.3092055,9.897805,0.0010522902,0.010985728,-0.0057907504,-128.0,-2307.5,27265.5,
6.027,1.1079955,1.2517448,9.804431,-0.0060089676,-0.007799879,0.003801899,-640.0,-1027.5,27265.5,
6.151,1.0505347,1.3427243,9.914564,0.0029175282,0.012451272,-0.0003282698,-128.0,-771.5,28033.5,
6.268,0.94758404,1.2637158,9.85471,-0.007474512,0.0011266135,-0.004191975,-640.0,-1027.5,26753.5,
6.385,1.1271491,1.3834257,9.933718,-0.007607743,0.0043241644,0.000337886632,-128.0,-771.5,27265.5,
6.503,1.0361695,1.3427243,9.91217,-0.00028002262,0.0076549464,-0.0052578252,-384.0,-515.5,26753.5,
6.621,1.1774274,1.3930025,9.91217,0.0025178344,0.0040577016,-0.003259357,-640.0,-1027.5,26753.5,
6.743,1.1199665,1.2948403,9.818796,-0.0057424904,0.0009933859,0.00073758052,128.0,-770.5,27009.5,
6.861,1.0936303,1.2397735,9.907382,0.0002528876,-0.000871852064,-0.000727963636,384.0,-514.5,26753.5,
6.980,1.0170159,1.3546953,9.878652,0.0010522902,0.003791239,-0.000727963636,-128.0,-515.5,27009.5,
7.098,0.928430464,1.1918895,9.871469,-0.01506868,-0.012995895,-0.0021935068,-384.0,-1027.5,28033.5,
7.215,1.1079955,1.1655533,9.869075,-0.009872675,0.0012598485,-0.0029928944,-384.0,-515.5,27521.5,
7.333,1.1008129,1.4480691,9.885834,-0.002811417,0.010186341,-0.0040587444,-384.0,-259.5,25985.5,
7.456,1.1822158,1.3666663,9.873863,-0.008673593,0.0059229432,0.0011372734,-384.0,-515.5,26241.5,
7.573,1.0864477,1.4815879,9.91217,0.0039833636,-0.0006053895,-0.0013941191,-128.0,-1027.5,27009.5,
7.690,1.0026507,1.4121561,9.814008,-0.0101391376,-0.012063276,0.001004043,-128.0,-1027.5,26753.5,
7.807,1.1558796,1.3594837,9.861892,-0.0040104984,-0.00180447468,0.00020465534,128.0,-770.5,27009.5,
7.926,1.0074391,1.3906083,9.861892,-0.0045434236,0.0021924674,0.0030025114,-384.0,-259.5,26241.5,
8.051,1.0625057,1.2900519,9.878652,-0.019731774,-0.009665113,0.004601286,-384.0,-771.5,26497.5,
8.167,1.0840535,1.2038605,9.842738,-0.0012126416,0.0020592324,-0.002326738,384.0,-1282.5,25729.5,
8.284,0.9763145,1.3642721,9.876257,0.0010522902,0.0063226336,-6.180722e-05,128.0,-514.5,27265.5,
8.401,1.0481405,1.2517448,9.881045,-0.0060089676,-0.0003389269,-0.004191975,128.0,-2.5,27265.5,
8.517,1.0337753,1.2732926,9.888228,-0.00014679134,-0.00313678,0.000337886632,384.0,-514.5,25729.5,
8.641,1.1534854,1.2397735,9.79246,0.0013187528,0.0033915452,-0.0031261258,-384.0,-1027.5,26753.5,
8.758,0.94758404,1.2254083,9.859498,-0.009739429,-0.0003389269,-0.002326738,128.0,-770.5,26497.5,
8.876,1.0912361,1.2206199,9.904987,0.0019849092,0.0035247804,-0.0031261258,-128.0,-515.5,27009.5,
8.996,0.94758404,1.2637158,9.828373,0.011311084,0.007921409,-0.003925513,-384.0,-1027.5,26497.5,
9.119,1.0385637,1.3163881,9.787672,-0.014269307,-0.004069403,-0.0016605817,-384.0,-771.5,27265.5,
9.243,1.0816593,1.3451185,9.835556,0.0003861338,0.0019260049,-0.003259357,-128.0,-515.5,27009.5,
9.361,1.1175723,1.3259649,9.842738,-0.002811417,0.0028586238,0.00087081176,128.0,-258.5,27521.5,
9.479,1.0313811,1.3499069,9.881045,-0.0053428112,0.0040577016,-0.0037922818,-384.0,-515.5,25985.5,
9.598,1.0744767,1.2732926,9.857103,-0.0082739,-0.0047355556,0.00047111884,384.0,-770.5,25985.5,
9.715,1.1175723,1.3451185,9.864286,-0.00361080468,0.003791239,-0.0024599694,-128.0,-771.5,26497.5,
9.833,1.0385637,1.3115997,9.902594,-0.0030778944,0.007122021,-0.0005947314,128.0,-514.5,25729.5,
9.955,1.0002565,1.2732926,9.909776,-0.009739429,-0.0059346408,-0.0031261258,-128.0,-259.5,27265.5,
10.072,1.0960245,1.2972345,9.871469,-0.00067971648,0.005256787,0.0012705056,128.0,-770.5,25985.5,
10.190,1.1510912,1.4313097,9.835556,-0.0045434236,0.0003272295,-0.00046150108,-640.0,-1027.5,27265.5,
10.307,1.0792651,1.26611,9.799643,-0.014136061,0.008587565,-0.008855069,384.0,-770.5,25473.5,
10.422,1.3641751,1.064997,9.86668,-0.012936994,-0.01566052,0.002336355,-128.0,-515.5,27777.5,
10.543,1.2324941,1.2756868,9.962448,-0.025194258,0.01764729,-0.011253231,-128.0,-515.5,25985.5,
10.659,-1.472954,0.59094492,12.31116,-0.114725668,-0.5008887,-0.20790254,-128.0,-515.5,25473.5,
10.776,1.2468593,-0.32364008,13.836266,0.0143754032,-0.092534948,-0.46224096,3456.0,-1282.5,22657.5,
10.896,0.957160864,-0.12013294,12.768453,-0.19239946,0.012451272,-0.8889807,3456.0,-3074.5,20865.5,
11.014,1.2516477,-0.175199568,11.1691268,-0.08394922,-0.14622712,-1.4669378,1664.0,-6658.5,21121.5,
11.139,0.94518984,0.9404984,9.05744,0.12002778,-0.37311996,-1.82439716,896.0,-15874.5,18305.5,
11.256,1.8597748,0.6340406,7.192357,-0.03238876,-0.25867432,-1.77496832,-1152.0,-27395.5,14209.5,
11.372,1.1941868,1.2230141,8.195528,-0.19666289,-0.14995761,-1.7152808,-6784.0,29436.5,11137.5,
11.490,-0.034038664,1.1463997,8.7174632,0.3170768,0.15274377,-1.5146345,-15488.0,21500.5,10881.5,
11.608,-0.54639776,2.9348686,8.274536,0.44231416,0.15727364,-0.8636667,-24448.0,11516.5,7041.5,
11.730,1.0481405,3.0186656,8.286508,0.31401248,-0.24335272,-0.40854876,-29824.0,4604.5,1409.5,
11.846,1.1415144,2.7792454,9.172362,0.5259834,-0.915770736,0.05549562,-25472.0,252.5,-2942.5,
11.962,2.1279254,4.92445,7.48445,0.33319776,-0.5468535,0.030181684,-17024.0,-4611.5,-10367.5,
12.076,2.5229688,3.3490652,7.6592264,-0.31044232,-0.38044764,0.031513996,-12160.0,-5379.5,-15231.5,
12.193,3.631484,4.086479,9.830768,0.030363158,-0.11411841,-0.08000055,-10368.0,-2819.5,-13439.5,
12.308,1.7448532,3.5190536,9.79246,0.249395316,-0.32582284,-0.021378804,-9600.0,-2819.5,-14719.5,
12.431,3.322632,4.297169,8.138066,0.364507136,-0.47477536,0.22016942,-6272.0,-5891.5,-20863.5,
12.547,3.6602144,3.7824158,7.9537132,0.19143974,-0.32475698,0.338612032,-896.0,-7427.5,-25727.5,
12.667,3.9762492,3.96676936,8.157221,0.09018399,-0.107190384,0.30410512,4736.0,-7938.5,-28031.5,
12.786,4.495791,4.321111,8.269748,0.017706186,-0.0010050833,0.29744356,8320.0,-7426.5,-30335.5,
12.902,4.816614,3.99071136,8.370304,-0.02852504,0.09811896,0.22270082,10880.0,-6146.5,-30591.5,
13.023,4.8190084,3.9643752,8.569023,0.11163422,0.08026597,0.19911888,11904.0,-5378.5,-29823.5,
13.139,4.9435068,3.997894,8.260171,0.018638804,0.008987259,0.25134554,13440.0,-4610.5,-30847.5,
13.255,4.8692864,3.7417144,8.116519,-0.03585276,0.03270242,0.15035625,15744.0,-3074.5,-29823.5,
13.370,4.8692864,3.571726,8.358334,-0.0058757364,0.060148056,0.019523184,16256.0,-2818.5,-30079.5,
13.485,4.498185,3.4783524,8.001597,0.01757297,0.042827992,-0.08306487,16256.0,-2562.5,-29567.5,
13.605,4.591559,3.914097,8.087789,-0.12764908,0.184053108,-0.0281736,15232.0,-2306.5,-30079.5,
13.721,3.82780868,3.2221728,9.35911,-0.00520958,0.11264116,0.04323835,13696.0,-1794.5,-28287.5,
13.836,5.187715,3.7991752,9.0358932,0.1998333,-0.08400814,-0.046026584,13696.0,-2562.5,-27519.5,
13.951,4.7998548,4.1630936,7.90343468,0.3840921,-0.42121644,-0.04016441,14464.0,-4866.5,-31103.5,
14.068,5.0488516,3.97634632,7.6137368,0.23367404,-0.354734,-0.09425629,16512.0,-8194.5,27520.5,
14.184,4.546069,4.416879,7.383893,0.06353774,-0.14875853,-0.07094083,18304.0,-10754.5,21376.5,
14.305,5.0512456,4.807134,7.237847,0.03809057,-0.038043364,0.02205458,19072.0,-11522.5,21120.5,
14.419,5.515721,4.2444964,6.6273256,-0.25968128,0.25133488,-0.09225782,19072.0,-10498.5,21120.5,
14.535,5.044063,4.2325252,8.193133,-0.29618664,0.42466872,-0.26252736,16000.0,-10498.5,25216.5,
14.652,4.8812576,4.416879,8.700705,-0.21744696,0.09838542,-0.2845105,11392.0,-9218.5,31104.5,
14.768,4.713663,4.0649316,8.19074,-0.19253274,-0.1021276,-0.38803116,7552.0,-9218.5,-30847.5,
14.888,4.7423936,4.084085,7.596977,-0.29818504,-0.0062011032,-0.685003636,4224.0,-9730.5,-28543.5,
15.005,3.8589332,3.7704448,8.19074,-0.52054804,0.1763257,-0.9967647,-3456.0,-8707.5,-23679.5,
15.120,2.738447,3.82551136,8.528321,-0.706272368,0.176991852,-1.1467831,-13952.0,-5891.5,-17279.5,
15.239,1.8717458,3.59327384,9.31362,-0.76702576,0.2939689,-1.1992761,-28544.0,-3.5,-8063.5,
15.356,1.7496416,2.6619296,9.237005,-0.57317436,0.34659524,-1.4256359,25472.0,8700.5,-382.5,
15.494,-0.64934844,2.1160514,10.273695,-0.39104724,0.470100568,-1.3704783,9344.0,19196.5,4481.5,
15.613,-0.9366527,1.6156633,10.304819,-0.33562304,0.14035326,-0.673679,-2688.0,29179.5,7809.5,
15.730,0.346639432,1.1344287,9.026316,-0.4344806,0.27198574,-0.377905568,-7552.0,-28676.5,8321.5,
15.847,-1.5759046,0.68192468,9.641625,-0.52427848,0.39482492,-0.35938644,-12160.0,-21508.5,10113.5,
15.964,-2.2798,-0.29012126,10.1108888,-0.3041805,0.20550334,0.07281568,-16768.0,-14084.5,10625.5,
16.081,-1.8033538,0.6292522,10.532269,-0.2483566,-0.035112284,0.6473087,-17280.0,-11780.5,10113.5,
16.202,-0.9677773,0.30842918,9.960054,0.05647649,-0.2606728,0.8086518,-14720.0,-14596.5,11649.5,
16.317,-0.55836884,0.193507484,8.822808,-0.024261654,-0.14529452,0.63371916,-9088.0,-18948.5,13441.5,
16.435,-0.412322468,-0.16562277,10.266512,-0.13271187,0.035500276,0.45305762,-4992.0,-20484.5,16513.5,
16.555,-0.845673,0.198295884,10.007938,0.044618904,-0.04776925,0.25107908,-3200.0,-20996.5,16001.5,
16.672,-0.63258904,0.30603498,9.799643,0.057275876,-0.1127861,0.217371568,-1152.0,-21252.5,16257.5,
16.795,-0.64695424,0.32758278,9.655991,0.024767444,-0.06428993,0.115582904,-128.0,-22020.5,16513.5,
16.913,-0.57512824,0.42813924,9.770912,0.010644928,-0.0232547,0.051631912,128.0,-22275.5,17281.5,
17.028,-0.57991668,0.5286957,9.871469,0.0063815416,-0.0260525568,0.033246004,-1152.0,-22532.5,17025.5,
17.145,-0.35486168,0.4736291,9.864286,0.0017184466,0.0033915452,0.022987198,-1408.0,-23300.5,15745.5,
17.262,-0.426687636,0.3587074,9.900199,-0.004676655,-0.0022041648,-0.022844348,-896.0,-22788.5,16769.5,
17.384,-0.49851376,0.464052268,9.988785,0.025033906,-0.02005715,-0.06707712,-1152.0,-23556.5,15233.5,
17.501,-0.46978336,0.906979568,9.744576,0.031162546,0.00059369208,-0.10691326,-1664.0,-23556.5,14465.5,
17.619,-0.47457176,0.5406667,9.758942,0.018239126,-0.02019038,-0.10344925,-1664.0,-23044.5,14977.5,
17.735,-0.52245576,0.59573332,9.835556,0.0193049616,-0.00273709,-0.078401776,-2176.0,-22788.5,14721.5,
17.851,-0.51766736,0.66755944,9.775701,0.03369394,0.007921409,-0.076403304,-1920.0,-22788.5,16513.5,
17.973,-0.59667608,0.7705101,9.859498,-0.0054760424,0.022310384,-0.053620768,-2432.0,-23044.5,15489.5,
18.089,-0.61343544,0.78966376,9.964843,0.0005193651,-0.006467562,-0.005524288,-3200.0,-22532.5,14721.5,
18.204,-0.55836884,0.6340406,9.909776,0.025566846,-0.026985176,0.008598224,-2944.0,-23300.5,14209.5,
18.320,-0.46499496,0.674742036,9.806826,0.021703124,-0.032847344,0.02325366,-2688.0,-22788.5,16001.5,
18.436,-0.36922688,0.68192468,9.828373,0.00744739168,0.0023256988,0.020988728,-2176.0,-23044.5,16001.5,
18.560,-0.53682092,0.662771,9.88344,-0.0030778944,-0.0010050833,0.0265844384,-1920.0,-23556.5,14721.5,
18.677,-0.37880368,0.69150148,9.895411,-0.007874206,-0.02218885,0.02831645,-1664.0,-23044.5,14721.5,
18.791,-0.52006156,0.6292522,9.830768,-0.00094617908,-0.013928514,0.0443042,-1664.0,-23812.5,17025.5,
18.906,-0.50809056,0.6244638,9.861892,-0.018133,-0.005534947,0.04044049,-1152.0,-24324.5,15489.5,
19.019,-0.53442676,0.7657217,9.842738,-0.038517384,-0.027651332,0.075613532,-640.0,-24068.5,15489.5,
19.141,-0.27824724,0.693895636,9.893017,-0.011604682,-0.021389462,0.10212655,128.0,-24067.5,16001.5,
19.259,-0.235151584,0.72023184,9.766124,-0.0202647152,-0.02738487,0.09586468,896.0,-24067.5,15489.5,
19.377,-0.1082589,0.6220696,10.005544,0.0003861338,0.0239091584,0.081875408,1408.0,-24835.5,16513.5,
19.494,-0.20163274,0.5023595,10.024697,0.07406301,-0.015394058,0.0187237968,1152.0,-25091.5,16257.5,
19.617,-0.2183922,0.883037536,9.785277,0.04008904,-0.032314428,-0.0048581316,2688.0,-25603.5,15489.5,
19.739,-0.25430518,0.87585496,9.804431,-0.034253984,0.00738848368,-0.0005947314,2176.0,-25603.5,16001.5,
19.857,-0.30937184,0.58376232,9.919353,-0.028391824,0.00072692332,0.01459363,2176.0,-26627.5,16001.5,
19.973,-0.63737744,0.9500752,9.667962,-0.046910956,-0.010464504,0.17114033,2944.0,-25347.5,17025.5,
20.091,-0.64456004,0.8375477,9.893017,-0.060234084,0.0011266135,0.402696232,3456.0,-26115.5,17025.5,
20.208,-0.57033984,0.6077044,9.842738,-0.11206104,0.0020592324,0.55164876,5504.0,-27139.5,16769.5,
20.330,-0.50569636,0.87585496,9.914564,-0.010805294,0.06614346,0.680083636,8320.0,-28419.5,18305.5,
20.447,-0.7762411,0.42574504,9.857103,0.0017184466,0.089325692,0.8294359,10880.0,-30211.5,17025.5,
20.563,-0.56076308,0.9381042,9.682327,-0.13337802,0.06920778,1.0322139,15232.0,-32003.5,18305.5,
20.679,-0.24712258,0.43292764,9.603318,-0.29059088,0.054818804,1.0808432,20096.0,-32259.5,18817.5,
20.796,0.38015824,-0.5846081,10.666344,-0.19253274,0.07640226,0.900048464,24192.0,-29443.5,21121.5,
20.918,0.33706264,0.2126611,10.201869,0.05154693,-0.062158228,0.64078044,28032.0,-28419.5,23169.5,
21.034,0.530993,0.32758278,9.739788,-0.0153351568,-0.095599268,0.488497136,32640.0,-28931.5,23425.5,
21.152,0.6459147,0.18632488,9.83795,-0.036518916,-0.019790686,0.23349256,-29824.0,-29187.5,22657.5,
21.267,0.66746248,0.48560008,10.0869464,-0.0073412808,0.0424283,0.004734517,-28032.0,-28163.5,21889.5,
21.383,-0.08671105,0.15280604,10.082158,0.09697878,-0.07361611,-0.08133286,-29056.0,-28419.5,21889.5,
21.503,0.3131206,0.6340406,9.74697,0.069000216,-0.084274608,-0.1428857,-27520.0,-29187.5,21377.5,
21.617,0.20059312,0.693895636,9.653597,-0.016400992,0.0068555624,-0.1642027,-27776.0,-30467.5,20353.5,
21.734,0.044970036,0.57179136,9.976813,-0.0045434236,0.048956632,-0.25746456,-29312.0,-30211.5,21121.5,
21.851,0.22214094,0.689107236,9.936112,-0.0040104984,0.036166432,-0.3118229,-31104.0,-30467.5,22145.5,
21.968,-0.005308211,0.6412232,9.9672368,0.0480829168,-0.000205695632,-0.34739564,32640.0,-30979.5,20865.5,
22.092,0.49029154,0.6460116,9.88344,-0.006675124,-0.011663582,-0.3509929,30848.0,-30979.5,20609.5,
22.208,0.17186272,0.55982036,10.017515,-0.011204988,0.030837182,-0.472366536,28544.0,-31491.5,20609.5,
22.327,-0.04600966,0.66516524,9.895411,0.0296970016,0.028039326,-0.5148673,25472.0,-31235.5,20865.5,
22.443,-0.1441719,0.6053102,9.998362,-0.024528102,0.0036580116,-0.49395,22400.0,-30723.5,20609.5,
22.557,-0.14896029,0.5167247,10.048639,0.049282,-0.014461435,-0.5088719,20864.0,-29955.5,21377.5,
22.678,-0.024461806,0.684318836,9.945689,0.12535703,0.019912222,-0.5717571,17536.0,-29955.5,19585.5,
22.796,-0.27345878,0.6603768,9.679933,0.06660206,-0.016726368,-0.53764988,14464.0,-30211.5,19073.5,
22.911,-0.29979504,0.7250203,9.962448,0.000119671224,0.0036580116,-0.44905104,12928.0,-29955.5,18305.5,
23.029,-0.46738916,1.1990721,9.871469,0.023701594,0.007921409,-0.35032672,9856.0,-29443.5,18305.5,
23.145,-0.49372536,0.8136057,10.010332,-0.034253984,-0.017792222,-0.227754,8064.0,-27907.5,18305.5,
23.266,-0.37880368,0.7345971,9.926536,0.04008904,-0.02125623,-0.1841874,6784.0,-27139.5,18305.5,
23.379,-0.44344716,0.679530436,9.88344,0.0428868984,-0.044038772,-0.13276012,6528.0,-27651.5,18049.5,
23.497,-0.49372536,0.5502435,9.845133,0.034093632,-0.036044896,-0.1318275,6528.0,-26883.5,18049.5,
23.612,-0.225574784,0.66755944,9.687116,0.00518246,0.013517121,-0.13076166,6016.0,-27139.5,17537.5,
23.728,-0.036432864,0.88543176,9.794854,-0.06183286,0.0677422336,-0.11370805,4736.0,-27139.5,17537.5,
23.850,-0.33570808,0.5095421,10.24257,-0.008673593,0.02404239,-0.06787651,3968.0,-25603.5,15233.5,
23.964,-0.421899268,0.42813924,9.995967,0.06979961,-0.07161764,-0.070407908,3712.0,-25603.5,16001.5,
24.080,-0.08671105,0.6244638,9.687116,0.07925903,-0.078279208,-0.07267284,4736.0,-26627.5,16001.5,
24.193,-0.20163274,0.7657217,9.706269,0.041554584,-0.032714112,-0.10398217,4480.0,-26883.5,15233.5,
24.310,-0.24233418,0.8136057,9.799643,-0.009739429,0.01325066,-0.06960852,4736.0,-27395.5,15233.5,
24.424,-0.31416024,0.8207883,9.900199,-0.008407116,0.0077881776,-0.080666708,4736.0,-27139.5,15489.5,
24.546,-0.19684434,0.8399419,9.849921,-0.00720804936,0.031903032,-0.06787651,4224.0,-26627.5,15745.5,
24.662,-0.24951678,0.8303651,9.86668,-0.010538831,-0.0022041648,-0.03150438,2944.0,-26883.5,14721.5,
24.778,-0.21120954,1.007536,9.655991,-0.008007437,0.010053109,-0.009787688,3712.0,-26627.5,14209.5,
24.893,-0.35486168,0.9213448,9.85471,-0.07075934,0.029238408,0.04283865,2944.0,-26115.5,15489.5,
25.007,-0.17529654,0.6555884,10.017515,-0.006541893,0.0096534152,0.062157184,2944.0,-25603.5,16001.5,
25.130,-0.1226241,0.8016347,9.873863,0.01197724,0.0027253888,0.05656147,2688.0,-26627.5,15745.5,
25.244,-0.16811394,0.7705101,9.878652,-0.023329034,-0.013795279,0.04123988,2944.0,-26371.5,14977.5,
25.360,-0.08192265,0.8064231,9.794854,-0.011338219,0.01325066,0.0109963852,3200.0,-26627.5,15233.5,
25.476,-0.16571975,0.8231825,9.945689,-0.027325972,0.008854028,0.0109963852,3456.0,-26883.5,14977.5,
25.593,-0.24951678,0.6340406,9.926536,-0.0022784918,-0.0019377023,0.0012705056,3200.0,-25859.5,16769.5,
25.717,-0.2136038,0.7800869,9.821191,-0.0021452606,-0.009798348,0.024985668,3456.0,-26371.5,15489.5,
25.832,-0.17529654,0.7776927,9.737393,-0.013070211,0.04442677,0.028982606,2944.0,-26627.5,16257.5,
25.948,-0.37640948,0.6436174,9.938506,-0.07089259,0.0105860344,0.0520316136,2944.0,-25859.5,16513.5,
26.065,-0.31894864,0.708260836,9.98639,0.0029175282,-0.010864198,0.08520619,3712.0,-24835.5,17793.5,
26.182,-0.25430518,0.59573332,9.797249,0.04088843,-0.017525758,0.103325632,4224.0,-25859.5,16769.5,
26.305,-0.39795728,0.58376232,9.914564,-0.0021452606,-0.0253864,0.09386622,4480.0,-26883.5,16769.5,
26.420,-0.24951678,0.689107236,9.713451,0.007847086,-0.0070004872,0.061357796,5504.0,-27139.5,16769.5,
26.537,-0.1154415,0.59333916,9.907382,-0.013736367,0.008987259,0.031114302,6016.0,-27395.5,16513.5,
26.653,0.0042685868,0.6460116,9.921747,-0.010272369,0.010319572,0.0020698932,6784.0,-26883.5,17025.5,
26.769,-0.1226241,0.689107236,9.871469,-0.0021452606,0.00072692332,-0.007789219,5504.0,-27651.5,17025.5,
26.892,-0.25191098,0.693895636,9.885834,0.020104364,-0.000738620736,-0.011519694,6016.0,-27395.5,17537.5,
27.011,-0.08192265,0.7681159,9.744576,-0.023195788,0.033102112,-0.030971452,5760.0,-27907.5,17793.5,
27.126,-0.103470504,0.7393855,9.873863,-0.012670532,0.034434428,-0.046159816,5760.0,-26883.5,17025.5,
27.243,-0.1274125,0.8136057,9.940901,-0.034120752,0.0466917,-0.04989029,4480.0,-26371.5,16513.5,
27.356,-0.35965008,0.16717127,10.340733,0.0017184466,-0.010064807,-0.04216288,3968.0,-26883.5,17025.5,
27.479,-0.25669938,0.863884,9.622472,0.07646117,-0.00939865,-0.056018928,3968.0,-26883.5,15745.5,
27.593,-0.38119788,0.9093738,9.979208,-0.042780788,0.02084484,-0.03710009,4224.0,-26627.5,15489.5,
27.708,-0.58949348,0.385043616,10.113283,0.07792672,-0.08094382,-0.023643736,3456.0,-26627.5,16513.5,
27.825,-0.30697764,0.89979692,9.464455,0.069266684,-0.022988238,0.019389954,3968.0,-28163.5,15489.5,
27.942,-0.26627618,0.7417797,9.861892,-0.018532708,-0.0060678684,0.03311277,5248.0,-28163.5,14721.5,
28.064,-0.29261244,0.698684036,9.926536,-0.027858884,0.024708546,0.0064665236,4992.0,-28419.5,14977.5,
28.182,-0.31655444,0.8686724,9.948083,0.01450865,0.0044573956,0.01046346,4480.0,-29187.5,15489.5,
28.297,-0.20402694,0.8040289,9.943295,0.047683224,-0.011530351,0.018190872,4992.0,-28931.5,14465.5,
28.414,-0.024461806,0.97880568,9.782884,0.008380011,0.0024589264,-0.007789219,5248.0,-29955.5,13697.5,
28.529,-0.31416024,1.1727359,10.036669,0.09871078,0.011252191,-0.060149092,4224.0,-30211.5,14465.5,
28.652,-0.25430518,1.3858199,9.782884,0.09617939,-0.033913204,-0.0003282698,3456.0,-32003.5,12673.5,
28.768,-0.20402694,1.1799185,9.737393,0.023568376,-0.06002652,0.0147268592,4224.0,31996.5,11905.5,
28.886,-0.16571975,1.2589274,9.802037,0.05407831,-0.014861133,-0.007789219,4224.0,31228.5,12673.5,
29.002,-0.09149951,1.4145503,9.797249,-0.037451536,-0.007799879,-0.008455375,4480.0,29180.5,11393.5,
29.119,-0.1250183,1.2996287,9.833161,-0.015201926,0.031370108,0.0011372734,4736.0,28156.5,12161.5,
29.242,-0.15135449,1.2110431,9.833161,-0.052773132,0.006056171,0.03710971,5760.0,27388.5,12161.5,
29.358,-0.1369893,1.3283591,10.144408,0.0058486164,0.009253722,0.064422116,7296.0,27644.5,13185.5,
29.474,0.009056985,1.2014663,9.737393,0.009445861,-0.009798348,0.07827816,7552.0,26876.5,12673.5,
29.589,-0.15135449,1.2589274,9.842738,-0.06263225,0.007122021,0.066420584,8064.0,26876.5,12929.5,
29.705,-0.20402694,1.0961216,10.218628,0.028364688,-0.014727902,0.054563,9088.0,27388.5,12673.5,
29.828,0.006662786,1.2924461,9.667962,0.046883836,-0.05682897,0.054962696,8576.0,26620.5,13185.5,
29.944,0.18143952,1.1368229,10.161167,0.13548261,-0.08667277,0.0100637668,10112.0,25340.5,12673.5,
30.063,0.3107264,1.4193387,9.557828,0.14347648,-0.11731595,-0.0485579768,11136.0,24060.5,11649.5,
30.180,0.2628424,1.5869329,9.447695,0.009445861,-0.059093908,-0.08799443,12160.0,22524.5,11393.5,
30.295,0.25087136,1.4025793,9.811614,-0.064497484,0.021777458,-0.13382598,12416.0,23292.5,10369.5,
30.412,0.09764248,1.8287473,9.76373,-0.024661348,0.0374987468,-0.079600856,11136.0,24060.5,10113.5,
30.536,-0.07474005,1.68030668,10.091735,-0.01506868,0.0027253888,0.02325366,10112.0,24572.5,11905.5,
30.653,0.23890036,1.68748932,9.71824,-0.013603151,0.0016595423,0.09892901,10368.0,25084.5,11137.5,
30.770,0.23890036,1.3211765,10.000755,-0.007607743,-0.010730963,0.10732257,11392.0,24828.5,11137.5,
30.895,0.3155148,1.3331475,9.689509,0.07193131,-0.05429758,0.06189072,11904.0,23804.5,11649.5,
31.009,0.542964,1.5605967,9.517127,-0.049975276,0.024575316,0.014193934,12416.0,23036.5,11649.5,
31.131,0.27720758,1.1703417,10.1108888,0.026233002,-0.038176596,-0.04789182,12928.0,23804.5,12161.5,
31.250,0.32748584,1.6827009,9.500367,0.0077138548,-0.004069403,-0.07520422,13440.0,24316.5,12417.5,
31.367,0.23650616,1.3810315,9.979208,-0.038250924,0.0115186536,-0.055885696,12160.0,24060.5,12929.5,
31.485,0.3107264,1.6563647,9.536281,0.014775112,0.0381649,-0.05735124,12160.0,24060.5,11649.5,
31.600,0.17665112,1.72579652,10.053428,-0.10659854,0.056550812,-0.029772374,11648.0,24572.5,12929.5,
31.725,0.23890036,1.3953967,10.024697,0.042620436,-0.0032700152,0.026451212,10880.0,25084.5,12929.5,
31.843,0.305938,1.6563647,9.878652,-0.011871144,-0.028983646,0.058426708,11136.0,25084.5,13441.5,
31.959,0.047364236,1.2230141,9.766124,-0.036518916,-0.036844284,0.08320772,11392.0,25340.5,13185.5,
32.076,0.4424075,1.4887705,9.667962,-0.015468374,0.024575316,0.0109963852,12416.0,25340.5,14721.5,
32.193,0.22692934,1.2325909,10.180321,-0.02799213,-0.01912453,0.033379236,11904.0,25340.5,13441.5,
32.316,0.4687437,1.4839821,9.653597,0.03582564,-0.015793752,-0.0048581316,12928.0,25852.5,13185.5,
32.432,0.24129456,1.2756868,10.027092,-0.03531985,0.018979602,-0.02417666,13184.0,25596.5,13185.5,
32.548,0.4663495,1.5653851,10.153985,0.14121156,-0.08054413,-0.061881104,12928.0,26108.5,13697.5,
32.665,0.933218832,1.732979,10.065399,0.19317174,-0.16927614,-0.11330836,14464.0,24572.5,12417.5,
32.784,0.77759576,1.4935591,9.663174,0.27923912,-0.26999896,-0.21243242,15744.0,23292.5,11905.5,
32.907,1.0098333,2.6020744,10.39101,0.369170216,-0.3844446,-0.055219544,18560.0,20220.5,8577.5,
33.025,0.69858708,3.437651,11.386998,0.372367736,-0.66582892,0.23788918,21888.0,16892.5,6273.5,
33.142,2.7791484,4.02423,10.410164,0.7771243,-0.87913216,0.6218616,30848.0,11516.5,1665.5,
33.257,2.300308,2.7241788,7.0415224,0.6861273,-0.7870694,0.55671156,-22400.0,2556.5,-7550.5,
33.372,4.4550896,4.165488,5.537964,0.089784296,-0.40243084,0.6282567,-10880.0,-2307.5,-15487.5,
33.488,5.077582,3.1958366,6.0191984,-0.3630687,0.5552354,0.15208826,-4224.0,-1027.5,-16767.5,
33.608,3.475861,3.6962248,8.628878,-0.63552652,1.0737714,-0.26119504,-8832.0,3324.5,-9854.5,
33.723,1.8837168,2.2333674,10.572969,-0.28632748,0.8889796,-0.43319656,-20096.0,9724.5,385.5,
33.839,1.8071024,3.1958366,10.367068,-0.09061079,0.40868098,-0.30902504,-31872.0,11772.5,2177.5,
33.958,1.5557113,2.5589788,9.016739,-0.25328612,0.27198574,-0.3238137,28288.0,13564.5,4993.5,
34.074,0.5884538,2.0346486,9.555434,-0.470719468,0.40868098,-0.41307864,22656.0,17916.5,7809.5,
34.198,0.006662786,1.2301967,11.746129,-0.020397932,0.14501636,-0.34539716,16256.0,24060.5,11393.5,
34.315,0.6411262,2.4632108,9.483608,0.26698184,-0.179135252,-0.14808172,13440.0,24572.5,8577.5,
34.432,0.4519843,2.1950602,9.416571,0.044618904,-0.12970646,0.0022031236,14720.0,23036.5,7297.5,
34.549,0.69379864,2.0107066,9.756547,-0.045578644,-0.078279208,-0.10757942,15232.0,22780.5,7553.5,
34.666,0.4448017,2.2788572,9.474031,0.07752702,0.021377762,-0.170597784,14464.0,24060.5,6785.5,
34.789,0.779989936,2.6595354,9.861892,0.04102166,-0.03564521,-0.088793816,13184.0,23548.5,5761.5,
34.905,0.5501466,2.3530774,9.727817,0.0043830724,-0.14556096,-0.014717244,13440.0,23292.5,6017.5,
35.021,0.885334864,2.5350368,9.146026,-0.29765212,-0.13317048,0.11225213,14464.0,23036.5,6017.5,
35.139,1.6227488,1.8909964,10.505932,-0.0975388432,0.0041909368,-0.302097,15232.0,26876.5,8321.5,
35.256,1.4647317,1.9652166,9.76373,0.043686284,-0.086406308,-0.44012456,12928.0,28412.5,10369.5,
35.372,1.0289869,1.4983475,9.85471,-0.08048524,-0.11172025,-0.4734324,11648.0,29180.5,10369.5,
35.494,1.1702448,1.5342605,9.955266,-0.0230625568,-0.19419038,-0.597604,9344.0,31996.5,10881.5,
35.610,1.0529289,1.74734452,9.646414,0.08445504,-0.190992832,-0.6968612,7808.0,-32003.5,11137.5,
35.727,1.2803781,1.8838138,9.952871,0.18118092,-0.23749052,-0.7701384,5504.0,-30467.5,10113.5,
35.843,1.3617809,2.372231,9.0742,0.06500329,-0.15488716,-0.66395308,3968.0,-29187.5,9857.5,
35.958,1.172639,2.003524,9.368687,-0.091410208,-0.08560692,-0.65182908,1408.0,-27907.5,8577.5,
36.078,0.90209424,2.1783008,9.983996,0.059940496,0.004723858,-0.7093849,-640.0,-24068.5,9345.5,
36.194,0.6339436,2.7313614,9.576982,0.04302013,-0.036711052,-0.5571016,-4224.0,-21764.5,7809.5,
36.308,0.4591669,2.6499584,9.684721,-0.052240208,-0.065755464,-0.29956564,-5504.0,-19204.5,8321.5,
36.424,0.4136771,2.4057498,9.806826,-0.0050763636,-0.05283203,-0.15700822,-5760.0,-17412.5,8321.5,
36.540,0.78238416,2.6810832,9.517127,0.02290222,-0.06029299,-0.059482936,-6016.0,-16644.5,7041.5,
36.661,0.81350872,2.7169962,9.617683,-0.007607743,0.02297654,0.019922878,-6016.0,-16644.5,8577.5,
36.777,0.7345001,2.6044686,9.687116,0.0031839908,-0.0043358652,0.14049715,-5760.0,-16900.5,8321.5,
36.893,1.0122275,2.453634,9.541069,0.012643397,0.008720797,0.17980036,-4736.0,-17412.5,8833.5,
37.009,1.1295433,2.5206716,9.636837,0.010911405,0.031103644,0.13010511,-4992.0,-18692.5,8833.5,
37.127,0.9739203,2.5661614,9.591347,-0.06636272,-0.024986706,0.15888306,-3712.0,-18948.5,8833.5,
37.243,1.1079955,2.4009614,9.768518,-0.11965521,-0.020590074,0.216438936,-3456.0,-18948.5,9857.5,
37.367,1.2253115,2.3554716,9.785277,0.04848261,0.089192468,0.21071,-1920.0,-18948.5,10113.5,
37.482,0.8566044,2.4919412,9.497973,0.014775112,0.09811896,0.2630699,-1664.0,-20740.5,9345.5,
37.596,0.8566044,2.6260164,9.325591,-0.2049232,0.15087854,0.29637772,-1408.0,-21764.5,9601.5,
37.712,0.8733638,1.8838138,10.067793,-0.15975784,0.174860144,0.377115816,-2432.0,-20228.5,10369.5,
37.831,0.77759576,1.9293036,10.16835,0.053945096,0.056017888,0.4336059,-1664.0,-22020.5,10625.5,
37.953,1.2540419,1.946063,9.591347,0.06473682,0.0466917,0.4085584,-128.0,-23812.5,9857.5,
38.066,1.1247549,1.71382544,9.213063,-0.057969152,0.10531345,0.17393818,1152.0,-25859.5,11137.5,
38.185,1.0337753,1.84311252,9.790066,-0.14829994,0.17965648,0.098129616,1408.0,-25603.5,10113.5,
38.303,1.1247549,1.72819068,10.247358,-0.07342397,0.049356328,0.06961813,-128.0,-24580.5,11649.5,
38.421,0.81590296,1.5749619,9.543463,-0.0054760424,-0.0015380084,-0.08186579,-128.0,-23812.5,11649.5,
38.544,0.5285988,1.6084807,9.88344,-0.09554036,0.0472246268,-0.12623179,-1152.0,-23556.5,11393.5,
38.660,0.51183932,1.69946032,9.85471,-0.037718012,0.044160308,-0.09878615,-1920.0,-22788.5,11137.5,
38.776,0.480714736,1.4528575,9.6488088,-0.04731065,0.019379298,-0.058150624,-2432.0,-21252.5,11137.5,
38.894,0.5740886,1.6491821,9.904987,-0.041315244,0.035100584,-0.0576177,-2688.0,-20228.5,11393.5,
39.009,0.49029154,1.4600401,9.797249,-0.06476393,0.024575316,-0.09545538,-2944.0,-19204.5,12161.5,
39.148,0.471137952,1.1990721,9.940901,0.0026510656,-0.005534947,-0.15167896,-3968.0,-18180.5,12161.5,
39.266,0.6530973,1.2517448,9.914564,0.027831778,0.051887716,-0.25373408,-4480.0,-18180.5,12929.5,
39.382,0.478320536,1.4648285,9.95766,0.03462656,-0.03657782,-0.2678566,-5504.0,-17156.5,11393.5,
39.497,0.32988004,1.4121561,9.667962,0.009445861,-0.021123,-0.3451307,-6784.0,-16388.5,10881.5,
39.612,0.1479207,1.6276343,9.861892,-0.008140668,0.05335326,-0.38803116,-8064.0,-13828.5,9601.5,
39.726,-0.031644464,1.4456749,9.849921,-0.00933975,0.01338389,-0.27398524,-8832.0,-11780.5,8321.5,
39.847,0.040181636,1.6132691,10.118072,0.054211556,-0.05283203,-0.2021736,-10112.0,-11012.5,8577.5,
39.963,-0.07234585,1.732979,9.545857,0.07512886,-0.07294995,-0.13715676,-10368.0,-11012.5,7297.5,
40.077,-0.00770241,1.6348169,9.538674,-0.033721076,-0.07561458,-0.07613684,-10368.0,-10500.5,8577.5,
40.191,0.21256414,1.6228459,10.010332,-0.05543776,0.032036264,-0.13062842,-10624.0,-9988.5,8321.5,
40.308,0.011451185,1.6060865,9.682327,-0.0490426432,0.019645758,-0.13276012,-10624.0,-8452.5,8577.5,
40.432,0.088065624,1.5079243,9.981602,-0.09407483,-0.0151275952,-0.03696686,-11648.0,-6916.5,10113.5,
40.549,0.10003668,1.3139939,10.055822,-0.052106976,-0.0048687904,0.03710971,-11392.0,-5892.5,9601.5,
40.666,0.056941032,0.98838248,10.084553,-0.017866552,-0.027251638,0.10918781,-10880.0,-5124.5,10881.5,
40.784,0.1670743,1.1416113,9.732605,0.020504058,0.000460457068,0.12610817,-10112.0,-6404.5,11393.5,
40.903,0.0258163816,1.124852,10.060611,-0.04824327,0.00725525236,0.22429958,-11136.0,-7428.5,11393.5,
41.027,0.554935,1.2924461,9.902594,-0.013603151,-0.018458374,0.23988764,-9856.0,-7940.5,11393.5,
41.143,0.7273175,1.2685042,9.706269,0.0010522902,0.03163657,0.11691522,-8832.0,-9220.5,12929.5,
41.260,0.37058144,1.3594837,10.010332,-0.012936994,0.055618192,0.10692287,-9344.0,-10500.5,11905.5,
41.378,0.3083322,1.1176694,10.132437,0.036092104,-0.080277672,0.13490144,-9088.0,-10756.5,12161.5,
41.495,0.475926336,1.254139,9.83795,0.11016867,-0.045637548,0.112651824,-7552.0,-11524.5,11393.5,
41.619,0.37536984,1.2445619,10.417347,0.16399409,-0.030848876,0.13956453,-7040.0,-13316.5,10113.5,
41.737,0.37058144,1.80241108,10.142014,0.46336472,-0.18179988,0.13969774,-5760.0,-16644.5,10369.5,
41.856,0.70576968,2.384202,9.299254,0.4245944,-0.26533586,0.18286468,-3200.0,-22532.5,9089.5,
41.970,1.0936303,2.3865962,8.628878,0.15853162,-0.14143081,0.14595963,384.0,-27651.5,7809.5,
42.087,1.1199665,2.4823644,8.54987,-0.28726012,0.20310516,0.07428122,1920.0,-29699.5,8577.5,
42.214,1.4192418,1.85268932,9.107718,-0.5709094,0.5317866,-0.020979112,-384.0,-25604.5,8065.5,
42.331,-0.18966174,1.3930025,11.33672,-0.26008092,0.42693364,-0.22895308,-6272.0,-19716.5,9601.5,
42.448,-0.09149951,1.5486257,10.802814,0.09444739,-0.1191812,-0.09079228,-9600.0,-15876.5,8065.5,
42.563,0.39931188,1.6827009,9.301649,0.092049224,-0.1840648,-0.0955886,-8832.0,-17156.5,8065.5,
42.679,0.25805396,1.5414431,9.909776,-0.0026781856,0.03270242,-0.25133592,-7808.0,-16900.5,7809.5,
42.796,0.1455265,1.9293036,10.477201,0.17318704,-0.16594535,-0.184054136,-9344.0,-15876.5,8065.5,
42.920,0.293967,2.0202834,9.58177,0.24126822,-0.278659,-0.05535277,-7040.0,-17924.5,7297.5,
43.033,0.7177407,2.453634,8.918576,0.10377358,-0.169009668,-0.11450744,-6016.0,-19972.5,6785.5,
43.149,0.478320536,2.1399934,9.208275,-0.11952199,0.091324168,-0.12689794,-5504.0,-19716.5,7297.5,
43.267,0.36818724,2.0442254,10.084553,-0.18240712,0.08532876,-0.032303764,-6784.0,-18436.5,7809.5,
43.384,0.626761,1.9532456,10.28806,0.016906812,-0.0059346408,-0.02617513,-7296.0,-15876.5,7809.5,
43.504,0.6363378,2.2477326,9.531492,0.05754233,-0.047103092,-0.014983706,-7296.0,-16644.5,8065.5,
43.620,0.70098132,2.1615412,9.687116,0.0069144664,-0.018191912,0.005134211,-6784.0,-17156.5,7553.5,
43.736,0.475926336,2.1280224,9.780489,0.03569241,-0.028583952,-0.0011276575,-6784.0,-17668.5,7041.5,
43.853,0.6171842,2.1016862,9.83795,0.048882304,-0.022588544,0.011129617,-6016.0,-17924.5,7553.5,
43.969,0.5716944,2.168724,9.600924,0.021969586,-0.028583952,0.0172582532,-5504.0,-17924.5,6017.5,
44.090,0.66985668,2.1328108,9.689509,0.03062962,0.0105860344,0.02631798,-5248.0,-18180.5,7297.5,
44.206,0.6171842,2.2668862,9.888228,0.019704654,-0.01459467,0.06895197,-5760.0,-18692.5,6273.5,
44.321,0.70816384,2.4009614,9.825979,0.09591293,-0.0548305,0.13703312,-6272.0,-19460.5,7297.5,
44.436,0.909276864,2.4679992,9.270524,0.0514137,-0.017792222,0.12650786,-5504.0,-21252.5,7297.5,
44.553,0.803931968,2.441663,9.517127,-0.012537301,0.07800104,0.13383558,-4480.0,-23300.5,6017.5,
44.675,0.7129523,2.300405,9.794854,-0.0020120292,0.0044573956,0.20338228,-3968.0,-23556.5,6785.5,
44.791,0.79196092,2.465605,9.474031,0.027565316,0.0033915452,0.22789684,-2944.0,-25604.5,8065.5,
44.907,0.5956364,2.4847586,9.670356,-0.022129938,0.040829524,0.2929137,-1920.0,-26372.5,6785.5,
45.022,0.66746248,2.549402,9.586558,-0.0414484736,0.15594132,0.4153532,-640.0,-26884.5,8577.5,
45.138,1.421636,2.0561964,9.59853,-0.066096248,0.049089864,0.34554,128.0,-28675.5,8321.5,
45.255,1.5030389,1.71143132,9.715846,-0.07302429,-0.024054088,-0.42866668,1152.0,-29187.5,8321.5,
45.378,1.6706331,0.7824811,9.960054,0.048882304,-0.1443619,-1.5412808,-1408.0,-25092.5,8321.5,
45.494,0.68422184,0.27491032,9.634443,-0.28419578,0.012717735,-2.0608828,-8064.0,-17412.5,9089.5,
45.611,0.904488464,-0.5774255,10.345521,-0.15989106,-0.18779528,-1.950567,-15488.0,-772.5,9089.5,
45.730,0.12876708,1.3690605,10.13962,0.16172916,-0.37738336,-1.6274814,-17280.0,11771.5,8834.5,
45.847,0.13834387,0.8231825,9.423753,0.24060206,-0.2518795,-1.69063292,-16000.0,19195.5,9346.5,
45.970,-1.130583,0.7705101,10.3574916,0.14174448,-0.12371105,-1.6066972,-14720.0,27899.5,7554.5,
46.087,-0.9629889,1.82395884,9.6488088,0.050081388,-0.16514598,-1.2098014,-12928.0,-29444.5,7298.5,
46.206,-0.029250264,2.3913846,10.546634,0.111367752,-0.29691166,-1.1551766,-8832.0,-22276.5,7554.5,
46.325,-0.68047316,1.75452708,10.438894,0.3602437,-0.5280679,-1.3125228,-4224.0,-17412.5,9602.5,
46.442,-0.45541816,2.3698368,8.600147,0.36557296,-0.23988872,-1.2756176,3712.0,-14083.5,12418.5,
46.565,-0.71159776,3.2676626,8.525928,-0.090344352,-0.22869726,-0.8653987,10624.0,-12803.5,13442.5,
46.681,-0.15135449,3.09528,9.174756,-0.26461084,-0.2805242,-0.5023436,15488.0,-9987.5,12162.5,
46.795,0.088065624,2.9061382,10.0390624,-0.17268126,-0.2044492,-0.371776936,19328.0,-6915.5,8578.5,
46.916,-0.57752248,1.4696169,10.201869,0.06913345,-0.043639088,-0.37497452,22912.0,-4867.5,3202.5,
47.033,0.0258163816,1.5534141,8.078212,-0.15216361,-0.32808776,0.110653352,25216.0,-2563.5,130.5,
47.158,1.0505347,0.385043616,10.010332,-0.26954036,-0.048568636,0.2506794,27264.0,764.5,-4732.5,
47.276,0.22692934,1.3953967,10.716622,-0.23543314,-0.097864192,0.4517253,26752.0,2812.5,-9852.5,
47.393,0.83026816,0.42095664,8.942518,-0.13777466,-0.16447982,0.9121725,24704.0,6140.5,-13692.5,
47.510,1.5509229,0.42813924,9.402205,-0.062765464,0.362050036,0.8443577,19840.0,7420.5,-15996.5,
47.627,0.95955508,0.7417797,10.687892,0.22994356,0.350592132,0.93988456,11904.0,6652.5,-18812.5,
47.745,-0.230363184,0.878249136,10.443683,0.12842135,0.20430426,1.4636166,3968.0,2044.5,-18812.5,
47.871,0.1670743,0.449687068,9.155602,-0.06569657,0.24080962,1.6143011,-4224.0,-4100.5,-18813.5,
47.988,-0.25909358,0.7585391,10.565787,-0.059168236,0.40508372,1.3402445,-11136.0,-13060.5,-18813.5,
48.106,0.4567727,1.4049735,11.013503,0.2579221,0.2679888,1.1248096,-17024.0,-21252.5,-18045.5,
48.222,-0.005308211,1.6108749,8.540293,0.29949028,0.06814193,0.96533176,-20864.0,-30980.5,-16509.5,
48.337,-0.19445014,1.1176694,8.418188,-0.47325088,0.067609008,1.1156166,-21632.0,25339.5,-14461.5,
48.460,-1.9613712,-0.7833268,10.991955,-0.4595281,0.22588772,0.8503532,-21632.0,21243.5,-12413.5,
48.575,1.2253115,0.13125824,9.852315,-0.18720348,-0.0016712397,0.32808672,-21632.0,19195.5,-10877.5,
48.693,1.2731955,-0.37870672,10.070188,-0.005609274,-0.0526988068,0.11624906,-20864.0,18683.5,-7293.5,
48.811,0.7440769,0.15280604,10.666344,0.044618904,-0.08880447,-0.17166364,-21120.0,17915.5,-4989.5,
48.928,1.0696883,0.97401732,9.691904,-0.08448218,-0.177802936,-0.16060544,-20352.0,18683.5,-2685.5,
49.050,0.7177407,-0.424196536,10.501143,0.359577532,-0.075214888,-0.2571981,-18560.0,19195.5,-2685.5,
49.168,1.3306563,0.67234784,9.351927,0.11829578,-0.09120263,-0.4393252,-17792.0,17403.5,-1405.5,
49.284,1.0888419,0.902191168,10.024697,-0.02346225,0.0036580116,-0.44039104,-16000.0,19707.5,-125.5,
49.403,1.1032071,0.22942052,9.849921,0.30055612,0.05535173,-0.4641062,-16256.0,23035.5,-381.5,
49.519,0.8661812,0.45208126,9.560223,0.2932284,0.10597961,-0.6648857,-16000.0,23035.5,-125.5,
49.642,0.933218832,0.93571,9.524309,-0.06063378,0.20097348,-0.88604957,-17024.0,26363.5,-637.5,
49.759,0.789566768,1.2972345,10.848303,0.0428868984,0.224422168,-1.0673772,-17792.0,32251.5,-2429.5,
49.880,0.13834387,1.5510199,11.02308,0.43498648,-0.3043726,-1.4537478,-16000.0,-25860.5,-3709.5,
49.996,-0.20163274,1.4384923,9.835556,0.24339992,-0.6185319,-1.5788519,-9088.0,-20228.5,-637.5,
50.113,0.5453582,1.1559765,9.265736,0.10097572,-0.6438458,-1.5157003,384.0,-12803.5,1410.5,
50.229,0.18862212,1.3379359,9.0119508,-0.05770269,-0.8558167,-1.43776,11392.0,-8963.5,3970.5,
50.350,1.3162911,1.4983475,8.276931,-0.21384968,-0.5389928,-1.4430892,26752.0,-6147.5,6786.5,
50.466,1.4958563,2.1711182,8.868299,-0.433414816,-0.26693464,-1.3861996,-28544.0,-6403.5,6786.5,
50.584,0.7177407,0.15759446,13.125189,-0.6230028,0.5062063,-1.4352287,-21632.0,-6659.5,5506.5,
50.700,0.6171842,0.5358783,10.912947,0.31614416,-0.349804436,-1.2096682,-16256.0,-7427.5,6274.5,
50.817,-0.101076308,0.5358783,9.071805,-0.26674252,-0.3276881,-0.428267,-9344.0,-12035.5,7554.5,
50.939,2.1829922,1.79762268,8.679156,-0.19186656,0.210299668,-0.28331144,-4224.0,-12035.5,7810.5,
51.058,0.044970036,1.9269094,10.52748,0.26485014,0.3592522,-0.11570652,-6784.0,-13059.5,9858.5,
51.174,0.1479207,2.621228,13.144342,0.4036771,0.0999842,0.7456334,-10624.0,-18947.5,14722.5,
51.288,0.76323052,1.0290838,10.843514,0.6019252,-0.61227,0.82197496,-12416.0,-20739.5,16770.5,
51.403,1.838227,2.1615412,8.569023,0.3780967,-0.23882284,0.54951704,-7040.0,-26371.5,18562.5,
51.524,1.4168476,2.0681674,6.938572,-0.3035143,-0.02005715,0.70992744,-5504.0,-27139.5,18306.5,
51.639,2.3266442,1.3307533,8.097365,-0.4829768,-0.0548305,0.76268696,-8064.0,-20483.5,17794.5,
51.754,3.8014724,1.0099302,10.051034,-0.18547146,-0.20684736,0.34780496,-10112.0,-15363.5,17282.5,
51.872,0.50944516,-0.412225536,12.129201,-0.33695536,0.84554624,-0.29077238,-13696.0,-12291.5,17794.5,
51.991,1.637114,1.1463997,7.9944148,0.20329732,-0.51407856,-0.11623944,-19584.0,-11267.5,19586.5,
52.113,1.5437403,-0.998805,9.471637,-0.060766996,0.21363046,-0.188983716,-17024.0,-13315.5,21378.5,
52.230,3.1957396,1.8574776,8.660003,-0.12631677,0.3016963,-0.13622414,-19072.0,-13315.5,23682.5,
52.347,2.1662328,1.1655533,9.414176,0.025966526,0.3817683,-0.19031602,-23424.0,-12547.5,26754.5,
52.463,1.3617809,1.5558083,11.255318,0.111500984,0.014849434,0.23122762,-28288.0,-14083.5,28802.5,
52.583,2.168627,1.5653851,12.557763,0.35837848,-0.32582284,0.38124604,-30080.0,-14851.5,32386.5,
52.700,0.5238104,2.2094254,9.031104,0.7498119,-0.90884268,0.48370084,-23680.0,-22275.5,-30333.5,
52.821,2.9658962,3.3155464,6.74464136,-0.2913903,-0.2560097,0.39896578,-16000.0,-27651.5,-29821.5,
52.940,2.6594382,0.58615652,7.15165536,-0.197329032,-0.010597732,-0.0053910568,-13184.0,-22531.5,-29821.5,
53.059,5.4031936,2.3674426,9.521915,-0.092476056,-0.034312896,-0.17899136,-13952.0,-19971.5,-29053.5,
53.176,3.47107268,1.2038605,14.42524,-0.6483168,1.0467253,-0.761878,-13696.0,-17923.5,-28797.5,
53.294,-0.44344716,0.193507484,8.166798,0.06500329,-0.152489,-0.5127356,-22656.0,-13059.5,-26749.5,
53.415,1.5964126,0.87585496,9.244188,-0.051174356,0.180988784,-0.43612764,-22144.0,-15875.5,-27261.5,
53.533,2.2787602,1.4720111,8.094971,-0.29898448,0.2458724,-0.18565292,-24192.0,-16131.5,-26237.5,
53.657,1.3617809,1.2732926,11.133213,0.020903752,0.492350216,-0.28530988,-28288.0,-14083.5,-27005.5,
53.776,0.7440769,0.626858,12.885769,0.4054091,-0.06282438,0.31116638,32384.0,-16387.5,-23933.5,
53.890,0.942795664,1.5701735,11.2625,0.620844,-0.457322036,0.230827932,32128.0,-20739.5,-21117.5,
54.014,0.70337544,2.9923294,7.845974,0.3665056,-0.55098368,0.439468068,-24960.0,-29187.5,-21629.5,
54.131,2.870128,2.2142138,7.058282,-0.5165511,-0.036844284,0.38231184,-19328.0,-30211.5,-22397.5,
54.246,2.714505,1.1152752,8.32242,-0.22570728,-0.0232547,0.103592104,-19328.0,-22787.5,-24189.5,
54.361,2.1279254,1.81917036,9.529098,0.07832641,-0.060692676,-0.29756716,-18048.0,-18947.5,-24445.5,
54.479,-0.57273408,0.27730452,12.684656,-0.4366123,0.841149536,-0.68740184,-18048.0,-18435.5,-23933.5,
54.602,1.6395082,1.5653851,8.648032,0.27097878,-0.57882892,-0.14341862,-22912.0,-14851.5,-23677.5,
54.720,1.69936352,1.0027476,8.609724,-0.32789564,0.31741756,-0.20736962,-18560.0,-16387.5,-23421.5,
54.837,2.7073224,2.0131008,8.118913,-0.23303502,0.3115554,-0.109178184,-22912.0,-12291.5,-23421.5,
54.954,2.2141168,4.9531804,13.37658,-0.08008553,0.358586,0.073748308,-29056.0,-10243.5,-23165.5,
55.069,1.2779839,0.8088173,12.854644,0.31934172,-0.048302172,0.5778953,32640.0,-12291.5,-21629.5,
55.191,0.021027982,1.1727359,10.302425,0.8165607,-0.8442256,0.46811276,-31616.0,-16643.5,-20861.5,
55.308,1.9387836,2.7696686,6.7326708,0.015707716,-0.3150311,0.50301932,-22912.0,-25859.5,-22397.5,
55.425,2.3697398,0.78966376,6.3304444,-0.37252808,-0.05203265,0.29264724,-19584.0,-23555.5,-22653.5,
55.541,5.2379932,1.3427243,10.965619,-0.09434126,0.0867943,0.00047111884,-21376.0,-18179.5,-22909.5,
55.657,6.2555292,3.3490652,14.341443,-0.49017124,0.4936825,-0.23894542,-21120.0,-17667.5,-23933.5,
55.780,-2.0140436,-0.62052108,8.300873,0.056210028,0.08639461,-0.62385048,-28800.0,-12291.5,-23165.5,
55.896,4.6442312,2.6739006,9.2346116,0.35198336,-0.218571716,-0.570558,-25984.0,-17923.5,-22909.5,
56.013,1.2540419,1.0123244,7.5538816,-0.10420041,0.66115416,-0.218694268,-25216.0,-20739.5,-22141.5,
56.132,2.4128356,4.843047,13.187438,0.0193049616,0.464371616,-0.19724406,-31872.0,-20995.5,-20605.5,
56.251,1.9627256,2.2022428,13.177861,0.5259834,-0.42747824,0.680883,30592.0,-23811.5,-19837.5,
56.366,-0.215998,2.513489,9.244188,0.43392056,-1.0327479,0.82397336,-26496.0,-31235.5,-20605.5,
56.487,1.6466908,2.24055,4.3983236,-0.189335152,-0.33221792,0.6353179,-15744.0,32764.5,-22909.5,
56.604,3.73204068,1.1894953,7.08701236,-0.38705028,0.14728129,0.4229474,-11904.0,-27395.5,-24957.5,
56.723,3.6027536,0.7609333,11.585717,-0.4495358,0.11304086,-0.117838224,-16768.0,-19971.5,-24957.5,
56.840,-1.6836436,-0.687558768,9.294466,0.019438208,0.96358916,-1.1511797,-22912.0,-14851.5,-23933.5,
56.957,2.1135602,2.963599,9.177151,0.3294673,-0.2540112,-0.46423944,-28032.0,-20739.5,-22141.5,
57.078,1.6610563,0.7800869,8.123701,-0.4816445,0.241875468,-0.07427161,-26240.0,-23555.5,-20861.5,
57.194,2.5469108,2.1304166,9.586558,-0.0040104984,0.390828,-0.25373408,-29568.0,-17667.5,-21373.5,
57.309,-0.25191098,0.88543176,13.426858,0.396082936,0.10358144,-0.04216288,31616.0,-18947.5,-20093.5,
57.429,3.6865508,2.6834774,11.50192,0.6059221,-0.6767539,0.34127664,30080.0,-24835.5,-17533.5,
57.544,-0.60864704,3.868607,7.7813304,0.6444259,-0.6660954,0.3128984,-25216.0,30460.5,-19581.5,
57.664,2.6139484,3.3897668,5.3320624,-0.27127236,-0.086806,0.25827356,-17536.0,26108.5,-22141.5,
57.780,6.013715,2.7241788,10.019909,-0.49456788,0.03057072,0.14023068,-16768.0,31484.5,-22397.5,
57.896,2.8797048,1.4815879,10.307214,-0.224907884,-0.42174936,-0.09239105,-16512.0,-27395.5,-24445.5,
58.014,-1.7961712,-0.5846081,9.078988,-0.387583268,0.731766768,-1.0468596,-17792.0,-22787.5,-24701.5,
58.132,2.858157,3.78481,8.281719,0.18837542,-0.48676616,-0.3599194,-19840.0,-24323.5,-22909.5,
58.252,1.4886737,0.67713624,7.728658,-0.375325984,0.51553244,-0.2887739,-16512.0,-25859.5,-24957.5,
58.369,3.322632,5.2620324,12.124413,-0.11485891,0.478627384,-0.011786156,-23424.0,-21507.5,-24189.5,
58.487,3.77513632,2.9899352,15.505025,0.76699864,-0.21950431,0.641713,-27008.0,-23811.5,-22141.5,
58.606,-2.0260146,1.72340232,8.806049,0.60019316,-0.7073971,0.7602889,-21632.0,-32259.5,-22653.5,
58.722,1.4934621,2.5948918,4.5012748,-0.043047264,-0.15435424,0.695272,-13696.0,28668.5,-24957.5,
58.844,0.5405698,1.85987184,8.36791,-0.59449136,0.2330822,0.29877588,-14720.0,-31235.5,-23933.5,
58.960,4.804643,2.3195586,15.210539,-0.11619122,0.29823226,-0.50967132,-19328.0,-23043.5,-23421.5,
59.077,-2.1313594,0.18632488,9.007162,0.6818639,-0.124243976,-0.705654436,-24448.0,-23043.5,-22141.5,
59.195,4.421571,3.2221728,8.631272,-0.04944235,-0.29038334,-0.1965779,-19072.0,29692.5,-22653.5,
59.310,1.0289869,0.93571,6.98885,-0.43101662,0.5409796,-0.25053652,-18048.0,32508.5,-22397.5,
59.425,1.7687952,3.0282424,11.238558,-0.172281552,0.6015998,-0.26612458,-24448.0,-28675.5,-21373.5,
59.549,0.27960178,2.5565846,13.769229,-0.06343162,0.1503456,0.3748509,-32640.0,-26883.5,-18813.5,
59.665,-2.4952782,6.265203,9.2394,0.9404658,-1.0855074,0.478238336,-30592.0,-30211.5,-20349.5,
59.780,1.8310444,3.856636,6.050323,-0.0570365336,-0.196188852,0.4533241,-19840.0,26108.5,-22141.5,
59.898,1.1175723,1.6683357,6.572259,-0.57903652,0.07999951,0.46065184,-17792.0,31228.5,-22397.5,
60.014,12.027949,-0.13689235,12.787606,-0.223042652,0.06987394,0.14342822,-18816.0,-24835.5,-23933.5,
60.139,0.92603624,1.4456749,12.936047,-0.20039334,0.87285864,-0.8841843,-19584.0,-20995.5,-23933.5,
60.256,0.23171776,1.2948403,8.509168,0.35238308,-0.6651628,-0.25666516,-23424.0,-23555.5,-23677.5,
60.372,2.1853864,1.3930025,8.075817,-0.34001964,0.3652476,-0.15421036,-17536.0,-26627.5,-24957.5,
60.488,1.6059894,1.9269094,8.808443,-0.2572831,0.4892859,-0.15887346,-21888.0,-20995.5,-24189.5,
60.603,1.8358328,2.537431,10.290454,0.14614111,0.39868868,0.05656147,-27008.0,-17155.5,-23421.5,
60.726,1.3115027,2.8247352,12.8809808,0.11403238,0.06321237,0.7340423,32640.0,-16387.5,-22397.5,
60.843,1.4000882,1.9245152,10.8746392,0.6183126,-0.6988703,0.8274374,30080.0,-16131.5,-20861.5,
60.959,1.5030389,4.536589,8.185951,0.65122076,-0.5060847,0.67315568,-27776.0,-24067.5,-21885.5,
61.074,1.6323256,2.3530774,6.040746,-0.31297374,0.09905158,0.66889224,-24448.0,-27907.5,-22653.5,
61.190,3.0401164,1.72819068,8.31045,-0.5289416,0.28970546,0.45865336,-27264.0,-20995.5,-23933.5,
61.312,3.595571,1.0817564,9.857103,-0.1894684,-0.0633573,-0.025775436,-32128.0,-11779.5,-25981.5,
61.426,1.1558796,0.13125824,11.90654,-0.3585388,0.7632093,-0.84967748,-32640.0,-9219.5,-27261.5,
61.541,1.1199665,1.4432807,8.729435,0.1554673,-0.17433892,-0.52925632,30080.0,-6403.5,-28029.5,
61.657,0.8542102,0.89500856,9.737393,-0.12738262,0.357786668,-0.5448444,32640.0,-7939.5,-28029.5,
61.774,1.72809392,1.86226608,9.045469,-0.025061026,0.3162185,-0.3509929,31104.0,-7171.5,-28797.5,
61.892,0.475926336,2.0538022,10.314396,0.15639992,0.28397656,-0.096121532,28032.0,-7939.5,-28029.5,
62.016,0.088065624,1.87184284,11.260106,0.23367404,-0.038443068,0.4779719,25216.0,-9987.5,-27261.5,
62.134,1.3761461,4.438427,10.936889,0.19437082,-0.19605562,0.52153844,23936.0,-11779.5,-26237.5,
62.251,-0.33091962,2.7696686,8.851539,0.5973953,-0.52393764,0.46984476,26240.0,-14851.5,-26237.5,
62.368,1.6634505,3.8231172,8.185951,-0.041848168,-0.04390554,0.620396,29568.0,-20227.5,-25469.5,
62.483,1.3641751,2.9731758,9.383052,-0.034120752,0.1486136,0.54991676,28032.0,-18691.5,-25469.5,
62.605,2.1901748,2.8271294,8.1045468,-0.024661348,-0.018858068,0.5429887,24960.0,-17155.5,-26237.5,
62.721,3.4782552,2.666718,8.942518,-0.172947692,0.065477304,0.40376208,24192.0,-14851.5,-25981.5,
62.838,3.5021972,2.858254,9.864286,-0.1776108,0.06307914,0.11251859,23168.0,-12035.5,-27517.5,
62.953,2.300308,2.159147,10.0390624,-0.0062754304,0.187117424,-0.36231752,20352.0,-8963.5,-29309.5,
63.071,0.942795664,1.87184284,10.300031,-0.061566396,-0.015793752,-0.100118468,20096.0,-8963.5,-31613.5,
63.197,2.20454,1.4744053,9.033498,-0.32643008,-0.096798344,-0.12663148,20608.0,-5891.5,32642.5,
63.313,2.2979138,0.56221456,9.256159,-0.39277924,0.207901508,-0.18871724,21888.0,-515.5,29570.5,
63.431,2.8366092,1.6036923,9.191516,-0.27753424,0.2689214,-0.268656,19328.0,5884.5,26755.5,
63.545,2.762389,2.2309732,10.714228,0.13774754,0.152877,-0.29610164,19328.0,8700.5,24963.5,
63.661,0.9715261,1.5031359,12.04301,0.11469854,-0.32049358,0.35166866,20864.0,9724.5,25731.5,
63.784,2.714505,2.0777442,9.979208,0.15586698,-0.14689328,0.238155652,24192.0,13308.5,24195.5,
63.901,1.4240302,2.2190022,10.115677,0.40714112,-0.37791628,0.11025366,29568.0,16380.5,27011.5,
64.020,1.69936352,2.9468396,8.0806056,-0.242894132,-0.053897888,0.31183252,-29056.0,20988.5,28291.5,
64.139,2.1398964,1.6659415,8.825203,-0.699610736,0.2654574,0.2558754,-27264.0,-28163.5,25987.5,
64.255,2.063282,0.947681,10.029486,-0.5014959,0.30009752,0.1326365,-31360.0,-8451.5,18307.5,
64.369,3.631484,0.04746118,11.533045,0.0030507594,-0.0089989568,0.038841712,29312.0,5116.5,9604.5,
64.492,1.70894032,0.57418556,10.948859,0.15147036,-0.27506172,0.2012506,28800.0,12284.5,7044.5,
64.610,2.1614444,0.59094492,9.907382,0.0226357424,-0.036844284,0.31023376,29056.0,18684.5,5764.5,
64.727,1.69457508,0.8112115,9.181939,0.043553056,0.121967344,0.1820653,27264.0,19708.5,4996.5,
64.845,1.73288232,0.8567014,9.3303792,0.0876526,0.2053701,0.11291829,25984.0,16892.5,6276.5,
64.961,1.7687952,-0.019576468,9.414176,0.18038154,0.2722522,0.30383864,26240.0,7932.5,2436.5,
65.088,0.789566768,0.389832032,9.727817,0.31987464,0.09185709,0.57296576,20096.0,-9731.5,-124.5,
65.206,0.5764828,1.1392171,9.205881,0.15107067,-0.12597598,0.6903424,15488.0,-27651.5,-5500.5,
65.322,1.7592184,1.2206199,9.677539,-0.008140668,-0.2783925,0.5403241,16768.0,22780.5,-17020.5,
65.437,2.5397282,1.3235707,9.215458,-0.2376981,-0.121046424,0.25227818,22912.0,13052.5,-29564.5,
65.555,2.3027022,1.2230141,9.263342,-0.498431632,0.03949721,-0.09625476,31360.0,4092.5,21635.5,
65.678,1.5437403,-0.24702564,9.509944,-0.39797528,-0.03777691,0.14809132,-25472.0,-3331.5,9090.5,
65.794,1.1822158,-1.95887968,9.840344,-0.10766439,-0.359796832,0.4835676,-17792.0,-8195.5,-2429.5,
65.912,3.2819308,-1.9469087,9.040681,0.310282,-0.35486728,0.7023332,-13440.0,-9475.5,-7293.5,
66.028,4.9866024,-2.8974068,10.326367,0.6394964,0.5148663,0.3957682,-13184.0,-8707.5,-10365.5,
66.144,2.8294266,-0.438561736,9.603318,0.2916296,0.6666167,-0.236147568,-16000.0,-10499.5,-7037.5,
66.261,1.3210795,2.9683874,13.647125,-0.151231,0.23161666,-0.52725784,-18048.0,-14083.5,-8061.5,
66.384,1.9244184,0.55742616,8.353545,-0.29658632,0.17192906,-0.5451108,-16512.0,-16643.5,-9085.5,
66.500,0.66027988,-0.5678487,10.470019,-0.185871168,-0.33674784,-0.191115408,-14464.0,-16899.5,-9341.5,
66.619,1.2731955,0.8255767,9.780489,0.0808578,0.049223096,0.02978199,-12928.0,-16131.5,-10621.5,
66.734,2.0417342,-0.431379136,9.723028,0.0022513718,0.025374704,0.011662542,-13184.0,-16899.5,-9853.5,
66.852,1.826256,-0.12731555,9.88344,0.070465768,-0.042439996,-0.024842818,-12928.0,-16899.5,-10109.5,
66.974,2.4080472,0.22702632,9.804431,0.0011855215,0.011385422,-0.07786885,-12928.0,-16899.5,-10621.5,
67.091,1.4647317,-0.32124588,9.825979,0.114565304,0.2001741,-1.0880281,-12416.0,-18179.5,-10877.5,
67.209,-0.0005198121,0.8567014,9.35911,0.058874644,-0.20524856,-1.0039592,-10112.0,-22275.5,-10365.5,
67.325,3.4088232,0.674742036,10.175532,-0.018266246,0.0205783768,0.0588264,-6784.0,-25603.5,-11133.5,
67.442,2.4319892,0.48320588,9.663174,0.006115079,-0.013395589,0.00193666116,-7552.0,-25859.5,-11133.5,
67.566,1.9818792,0.238997316,9.897805,0.027032376,-0.012329739,-0.0141843184,-6784.0,-25091.5,-10621.5,
67.685,2.0489168,0.26293932,9.785277,-0.017200396,0.0035247804,0.001004043,-6784.0,-25347.5,-10877.5,
67.803,1.9124474,0.380255232,9.756547,-0.0101391376,-0.0022041648,-0.0008611949,-6016.0,-25347.5,-10109.5,
67.922,1.907659,0.4736291,9.74697,-0.004276961,0.0020592324,-0.0015273513,-7040.0,-25603.5,-11389.5,
68.037,1.8645632,0.4975711,9.816402,-0.00361080468,-0.0014047772,-0.0048581316,-7040.0,-25347.5,-11389.5,
68.161,1.8334386,0.44011028,9.914564,-0.0010794252,0.004857093,-0.0024599694,-6528.0,-26371.5,-10109.5,
68.277,1.69457508,0.385043616,9.811614,-0.0025449544,0.0043241644,-0.009787688,-6784.0,-26115.5,-10365.5,
68.395,1.826256,0.49038848,9.871469,0.000919044,0.001526311,-0.0031261258,-7296.0,-25603.5,-10621.5,
68.509,1.8334386,0.5143305,9.864286,-0.004809886,0.0063226336,-6.180722e-05,-7040.0,-26115.5,-10365.5,
68.625,1.9028706,0.59333916,9.890622,-0.0040104984,-0.000205695632,0.0026028176,-7296.0,-26371.5,-11389.5,
68.749,1.886111,0.49038848,9.828373,-0.0038772672,0.0055232496,0.000337886632,-6784.0,-26115.5,-10621.5,
68.867,1.8549864,0.3682842,9.565011,-0.011737898,-0.0058014056,-0.0048581316,-7296.0,-25859.5,-10877.5,
68.984,2.4870558,0.08576841,10.0869464,-0.00067971648,0.0076549464,0.0026028176,-7040.0,-26371.5,-11133.5,
69.103,1.6634505,0.69628984,9.550646,-0.034120752,-0.02005715,-0.0043252064,-7040.0,-25859.5,-10621.5,
69.219,2.0848298,0.29406396,9.830768,-0.013869613,-0.004069403,0.00286928,-6784.0,-26371.5,-11133.5,
69.341,2.1279254,0.109710424,9.715846,-0.0004132688,-0.0060678684,0.0006043492,-6784.0,-25859.5,-11389.5,
69.458,2.0489168,0.389832032,9.814008,-0.00361080468,-0.0030035526,0.0015369672,-6784.0,-26115.5,-10877.5,
69.577,1.9890618,0.447292868,9.818796,0.0003861338,0.0016595423,0.0012705056,-6784.0,-25859.5,-9853.5,
69.695,1.8885052,0.459263868,9.842738,-0.00081294776,0.0041909368,-0.004191975,-6528.0,-26627.5,-10621.5,
69.818,1.8789284,0.4808117,9.881045,-0.0073412808,0.0055232496,-0.0045916692,-6784.0,-26115.5,-9853.5,
69.935,1.8956878,0.66516524,10.0869464,0.007980302,0.0040577016,0.0026028176,-6784.0,-25859.5,-10365.5,
70.053,1.8430154,0.5095421,9.840344,-0.009073272,0.0064558648,-6.180722e-05,-7040.0,-25859.5,-10365.5,
70.169,1.8430154,0.42574504,9.83795,-0.012404054,0.003791239,0.00087081176,-6528.0,-26371.5,-10365.5,
70.286,1.8525922,0.4951769,9.948083,-0.00414373,-0.0003389269,-0.0024599694,-6784.0,-26115.5,-9853.5,
70.406,1.87414,0.5191189,9.86668,-0.0045434236,0.0013930798,-0.003925513,-7296.0,-25603.5,-10365.5,
70.521,1.8717458,0.4664465,9.921747,-0.004276961,0.00072692332,-0.0003282698,-6784.0,-25859.5,-9597.5,
70.636,1.8717458,0.5095421,9.900199,-0.00347757336,6.0766936e-05,-0.0009944253,-6784.0,-25859.5,-9853.5,
70.754,1.8430154,0.5023595,9.859498,-0.00081294776,-0.0012715459,-0.00046150108,-6784.0,-26115.5,-9597.5,
70.871,1.8597748,0.5215131,9.869075,-0.0022784918,0.0012598485,-0.004191975,-6528.0,-25603.5,-10365.5,
70.993,1.850198,0.5119363,9.873863,-0.0049431176,0.001526311,-0.0019270442,-6784.0,-26371.5,-9853.5,
71.109,1.8597748,0.40419724,9.835556,-0.0073412808,0.0013930798,-0.002726432,-7040.0,-26115.5,-9853.5,
71.225,1.9483604,0.44011028,9.869075,-0.00094617908,-0.0024706236,-0.0019270442,-6784.0,-25603.5,-10621.5,
71.343,1.9268126,0.32279438,9.885834,-0.00014679134,0.0024589264,-0.003259357,-6528.0,-25859.5,-10621.5,
71.460,1.7592184,0.5502435,9.797249,0.008380011,0.003791239,-0.0001950385,-6528.0,-26115.5,-11133.5,
71.581,1.8454096,0.5310899,9.823585,-1.3560057e-05,0.0011266135,-0.002326738,-6528.0,-26115.5,-10621.5,
71.697,1.72569968,0.6555884,9.861892,-0.0025449544,0.0076549464,-0.006190444,-7040.0,-26115.5,-10109.5,
71.814,1.8549864,0.4784175,9.943295,-0.00014679134,-0.003669709,0.00020465534,-6784.0,-26115.5,-10877.5,
71.931,1.9028706,0.5550319,9.88344,-0.0053428112,0.0008601546,-0.0019270442,-6272.0,-25859.5,-10365.5,
72.047,1.7759778,0.4975711,9.76373,0.001451984,0.0013930798,-0.002726432,-6528.0,-26371.5,-11645.5,
72.167,1.9172358,0.57418556,9.921747,-0.013336688,-0.0011383183,-0.0011276575,-6528.0,-26883.5,-11645.5,
72.285,1.8310444,0.693895636,9.76373,-0.033987536,0.00059369208,0.0035354364,-6784.0,-25859.5,-10621.5,
72.402,1.8789284,0.5454551,9.881045,0.0026510656,-0.011663582,-0.005524288,-6784.0,-26115.5,-10109.5,
72.518,1.8238618,0.49038848,9.766124,-0.010938525,0.0027253888,-0.0005947314,-5760.0,-26371.5,-11133.5,
72.635,1.9579372,0.4999653,9.928929,0.024634212,-0.007400181,-0.008188913,-6528.0,-26627.5,-10621.5,
72.756,1.8573806,0.5239073,9.952871,-1.3560057e-05,-0.009132192,-0.0043252064,-6528.0,-26627.5,-11133.5,
72.873,1.8238618,0.5239073,9.938506,-0.0038772672,-0.0016712397,0.0011372734,-6784.0,-26883.5,-11645.5,
72.990,1.8669574,0.5502435,9.857103,-0.01147145,0.0023256988,-0.0015273513,-7040.0,-26371.5,-10621.5,
73.106,2.0082154,0.3491306,9.840344,-0.0014791042,0.0027253888,-0.0036590504,-6784.0,-26883.5,-10621.5,
73.222,1.9220242,0.456869668,9.928929,-0.0021452606,0.003791239,0.00073758052,-7040.0,-26627.5,-10877.5,
73.345,1.931601,0.5023595,9.936112,-0.002811417,0.00059369208,-0.00046150108,-7040.0,-26371.5,-10365.5,
73.461,1.8837168,0.4999653,9.895411,-0.007474512,-0.000205695632,0.000337886632,-6528.0,-26371.5,-10877.5,
73.579,1.8932936,0.444898668,9.931324,-0.0038772672,-0.0024706236,-0.003925513,-7552.0,-25859.5,-11133.5,
73.697,1.8597748,0.5023595,9.818796,-0.0073412808,0.005123552,0.0012705056,-7040.0,-26627.5,-12413.5,
73.813,1.9004762,0.44250448,9.897805,-0.0057424904,-0.0012715459,-0.0029928944,-7296.0,-26371.5,-11133.5,
73.937,1.898082,0.5047537,9.833161,-0.0029446482,-0.0012715459,-0.00046150108,-7296.0,-26115.5,-11133.5,
74.053,1.9124474,0.43053344,9.960054,-0.0030778944,-0.0030035526,-0.001793813,-6784.0,-26115.5,-10877.5,
74.170,1.8765342,0.5095421,9.840344,-0.0032111108,-0.0010050833,-0.0009944253,-6784.0,-26883.5,-11645.5,
74.287,1.8549864,0.5023595,9.904987,-0.0062754304,0.0029918552,-0.0037922818,-7296.0,-26115.5,-11645.5,
74.405,1.8454096,0.48560008,9.825979,-0.008007437,0.0016595423,0.0026028176,-6784.0,-26371.5,-11389.5,
74.528,1.8765342,0.49038848,9.893017,-0.007074803,0.00019399822,-0.0016605817,-7040.0,-26115.5,-10877.5,
74.646,1.8837168,0.48560008,9.897805,-0.002811417,0.0025921612,0.00020465534,-7040.0,-26371.5,-10877.5,
74.763,1.9052648,0.49278268,9.852315,-0.004676655,0.0036580116,-0.0029928944,-6784.0,-26371.5,-10365.5,
74.879,1.9148416,0.444898668,9.907382,-0.006675124,0.0012598485,-0.002326738,-7296.0,-26883.5,-11901.5,
74.996,1.9028706,0.4712349,9.830768,0.000119671224,0.0031250828,-0.0031261258,-6784.0,-26371.5,-11901.5,
75.120,1.8789284,0.4664465,9.83795,-0.0038772672,6.0766936e-05,-0.0035258192,-6528.0,-26627.5,-10877.5,
75.236,1.9052648,0.5119363,9.83795,-0.00520958,-0.0004721582,-0.0024599694,-6784.0,-25859.5,-10621.5,
75.351,1.907659,0.4712349,9.828373,-0.0029446482,0.003791239,-6.180722e-05,-7296.0,-26115.5,-11389.5,
75.466,1.838227,0.5047537,9.79246,-0.0021452606,-0.0020709336,-0.0025932006,-7296.0,-25859.5,-10621.5,
75.582,1.8837168,0.49038848,9.833161,-0.006541893,0.003924474,0.0006043492,-6784.0,-26371.5,-11389.5,
75.703,1.9052648,0.4999653,9.876257,-1.3560057e-05,-0.0016712397,-0.0011276575,-6784.0,-26627.5,-10109.5,
75.820,1.8765342,0.449687068,9.873863,-0.007074803,-0.00313678,-0.0012608878,-7296.0,-26883.5,-11133.5,
75.937,1.886111,0.4808117,9.885834,-0.0049431176,0.004857093,-0.0019270442,-6272.0,-26371.5,-10621.5,
76.052,1.87414,0.461658036,9.859498,-0.002411738,0.0031250828,0.00047111884,-7040.0,-26371.5,-9597.5,
76.168,1.8789284,0.49038848,9.881045,-0.00774095936,-0.0016712397,0.000337886632,-6528.0,-26627.5,-11133.5,
76.294,1.8549864,0.5167247,9.871469,-0.0032111108,0.0011266135,0.0020698932,-6528.0,-26115.5,-10109.5,
76.411,1.8837168,0.4808117,9.852315,-0.00694158636,-0.0011383183,-0.0025932006,-6784.0,-26627.5,-11389.5,
76.534,1.9220242,0.4951769,9.895411,-0.00361080468,-0.000738620736,-0.0008611949,-6016.0,-26371.5,-10621.5,
76.652,1.87414,0.48320588,9.871469,-0.008540362,-0.0003389269,0.0022031236,-6528.0,-26371.5,-11389.5,
76.767,1.8813226,0.447292868,9.799643,-0.0037440508,0.0008601546,0.00020465534,-6784.0,-26371.5,-11645.5,
76.891,1.8908994,0.48799428,9.871469,-0.007607743,0.0033915452,-0.0040587444,-6528.0,-26371.5,-11389.5,
77.008,1.9004762,0.459263868,9.91217,-0.0054760424,0.0033915452,-0.0012608878,-6784.0,-26883.5,-10109.5,
77.125,1.8669574,0.5286957,9.79246,-0.0049431176,0.0019260049,7.142406e-05,-7040.0,-26627.5,-10365.5,
77.242,2.1398964,0.6508,9.770912,0.0029175282,-0.005534947,-0.006190444,-6528.0,-26627.5,-11133.5,
77.356,0.5956364,-0.017182268,10.247358,-0.039716484,-0.0034032464,0.008331762,-6784.0,-26115.5,-10877.5,
77.478,1.1917926,1.6707299,8.83478,-0.04930912,-0.12024704,-0.114240976,-6784.0,-26627.5,-11133.5,
77.596,2.537334,-0.27815026,9.237005,0.06393743,0.051621256,0.0401740268,-6016.0,-26115.5,-12413.5,
77.713,2.738447,-0.26378504,10.041457,-0.043313712,-0.046570168,-0.05068968,-5760.0,-26627.5,-12413.5,
77.829,1.9890618,1.2373793,10.115677,-0.023195788,-0.05083356,-0.04349519,-5760.0,-26883.5,-13181.5,
77.946,2.7791484,0.4999653,9.797249,0.018239126,0.087193992,0.0400408,-5248.0,-27139.5,-13437.5,
78.082,2.3050964,0.7441739,9.406994,0.08711967,0.04442677,0.018190872,-5760.0,-26883.5,-13181.5,
78.197,2.5421224,0.41137984,9.940901,-0.032655224,-0.030315958,-0.025508974,-5504.0,-26883.5,-12157.5,
78.314,2.1159544,-1.1687932,10.206657,-0.0462448,0.0027253888,0.025252126,-5760.0,-26883.5,-11645.5,
78.430,1.9268126,0.722626036,9.406994,-0.021197334,0.012318041,0.007532374,-5760.0,-26627.5,-13181.5,
78.548,2.1734154,-0.06506631,10.577758,0.014108956,-0.030315958,0.0024695872,-5504.0,-26627.5,-12413.5,
78.671,2.1949632,0.70107824,9.59853,-0.0062754304,-0.025119938,-0.03603424,-5504.0,-27139.5,-10877.5,
78.787,2.3266442,0.44250448,9.95766,-0.0022784918,-0.008199573,0.00020465534,-5504.0,-27395.5,-11901.5,
78.903,2.2715776,0.4664465,9.864286,-0.011871144,0.0025921612,0.001004043,-6016.0,-27907.5,-12669.5,
79.019,2.123137,0.43053344,9.797249,-0.0054760424,0.001526311,-0.0008611949,-5504.0,-27651.5,-12157.5,
79.135,2.1207428,0.4664465,9.835556,-0.004276961,-0.0016712397,0.00087081176,-6016.0,-27139.5,-11645.5,
79.257,2.1590502,0.5023595,9.890622,0.0002528876,0.006189406,-0.0029928944,-5504.0,-26883.5,-11645.5,
79.372,2.192569,0.43532188,9.869075,-0.00094617908,0.0024589264,-0.004191975,-5248.0,-27395.5,-12157.5,
79.488,2.123137,0.4712349,9.909776,-0.0029446482,0.0019260049,-0.0029928944,-6016.0,-27651.5,-11901.5,
79.606,2.1183486,0.5310899,9.828373,-0.0021452606,0.0025921612,-0.0020602756,-5760.0,-27907.5,-11133.5,
79.723,2.087224,0.42813924,9.890622,-0.0060089676,-0.0024706236,0.0012705056,-6272.0,-27907.5,-9853.5,
79.845,2.1710212,0.5071479,9.794854,-0.00720804936,0.0019260049,-0.0001950385,-6784.0,-28419.5,-8573.5,
79.964,2.1015892,0.42335084,9.821191,-0.0049431176,0.0041909368,0.00073758052,-8576.0,-28675.5,-6781.5,
80.080,2.180598,0.44250448,9.797249,-0.00014679134,-0.0019377023,-0.0045916692,-11648.0,-28675.5,-4733.5,
80.198,2.0441284,0.56221456,9.71824,-0.008806825,0.00179276984,-0.0020602756,-14464.0,-28419.5,1410.5,
80.315,2.1375022,0.45208126,9.83795,-0.006541893,6.0766936e-05,-0.005124594,-19328.0,-27907.5,7042.5,
80.438,2.393682,-0.5534834,8.612119,-0.060500548,0.032169496,-0.018314486,-23168.0,-28163.5,13954.5,
80.553,1.8334386,0.56221456,10.125255,0.0026510656,-0.026985176,-0.007789219,-23424.0,-28163.5,13698.5,
80.671,2.5349398,0.28209292,9.64402,0.012376934,-0.0068672598,-0.007123063,-23680.0,-27907.5,13186.5,
80.789,2.111166,0.32518858,9.919353,-0.010672063,-0.009132192,7.142406e-05,-23936.0,-28163.5,13698.5,
80.904,1.9363894,0.6196754,9.706269,-0.008540362,0.00072692332,-0.005524288,-23680.0,-28419.5,13186.5,
81.024,2.2356646,0.26054512,9.744576,-0.0005464852,0.0011266135,0.00286928,-23680.0,-28419.5,13442.5,
81.139,2.1327138,0.5215131,9.902594,-0.009073272,0.0059229432,-0.002326738,-23936.0,-28163.5,14210.5,
81.254,2.0441284,0.5023595,9.739788,-0.002811417,0.0003272295,-0.0015273513,-24192.0,-27907.5,14210.5,
81.369,2.1159544,0.41616824,9.794854,-0.00933975,0.0013930798,-0.0020602756,-24192.0,-28163.5,13954.5,
81.486,2.1255312,0.3611016,9.878652,-0.0038772672,-0.0035364776,-0.0031261258,-23936.0,-27651.5,14210.5,
81.608,2.1734154,0.43292764,9.926536,-0.0021452606,-0.0011383183,0.00047111884,-23424.0,-28163.5,13698.5,
81.726,2.1446848,0.5382725,9.768518,-0.0045434236,0.0020592324,-0.00046150108,-23424.0,-27651.5,13186.5,
81.843,2.087224,0.41616824,9.830768,-0.0038772672,0.0035247804,-0.0012608878,-23424.0,-27907.5,13698.5,
81.961,2.0944066,0.385043616,9.828373,-0.00361080468,0.0031250828,-0.00339258784,-23424.0,-28419.5,14466.5,
82.087,2.1542618,0.464052268,9.814008,-1.3560057e-05,-0.0006053895,-0.0012608878,-23936.0,-28419.5,14978.5,
82.206,2.168627,0.5023595,9.888228,-0.004276961,0.0020592324,0.004601286,-23424.0,-27907.5,14210.5,
82.320,2.1135602,0.42813924,9.83795,-0.0037440508,6.0766936e-05,-0.0015273513,-23680.0,-27907.5,14210.5,
82.437,2.1255312,0.40659144,9.830768,-0.0050763636,0.0032583176,-0.0020602756,-23424.0,-28419.5,13954.5,
82.554,2.1398964,0.5191189,9.902594,-0.0014791042,-0.0012715459,0.0022031236,-23936.0,-28419.5,13954.5,
82.677,2.1303196,0.4951769,9.804431,-0.006541893,0.0024589264,-0.003925513,-23168.0,-28419.5,14210.5,
82.793,2.1207428,0.42574504,9.780489,-0.009073272,0.0027253888,0.00073758052,-23680.0,-27907.5,14210.5,
82.910,2.1015892,0.456869668,9.768518,-0.006541893,-0.0023373962,-0.0035258192,-23168.0,-28931.5,13442.5,
83.027,2.1446848,0.48320588,9.835556,-0.0037440508,0.0025921612,-0.0024599694,-24448.0,-28675.5,13954.5,
83.144,2.123137,0.4999653,9.881045,-0.0037440508,-0.000205695632,-0.0029928944,-23936.0,-28931.5,12930.5,
83.267,2.1015892,0.41377404,9.761335,-0.00094617908,0.0024589264,-0.0005947314,-23936.0,-28163.5,13186.5,
83.384,2.1183486,0.40659144,9.804431,-0.00414373,-0.0006053895,7.142406e-05,-23680.0,-28419.5,13954.5,
83.500,2.1422906,0.4736291,9.806826,-0.0026781856,0.0033915452,-0.0040587444,-23936.0,-29187.5,13442.5,
83.616,2.135108,0.44011028,9.780489,-0.0073412808,0.000460457068,-0.0047249004,-23936.0,-27651.5,12674.5,
83.734,2.099195,0.42335084,9.816402,-0.0014791042,0.0055232496,0.00087081176,-23680.0,-28163.5,13698.5,
83.857,2.1183486,0.41137984,9.857103,-0.00361080468,0.00179276984,0.003268974,-23168.0,-28931.5,13954.5,
83.976,2.2021458,0.42095664,9.756547,-0.0044102072,0.0019260049,-0.0040587444,-23936.0,-28419.5,13442.5,
84.095,2.1782038,0.44250448,9.873863,-0.0029446482,-0.000738620736,0.002336355,-23680.0,-28675.5,13442.5,
84.213,2.1327138,0.40659144,9.823585,-0.0054760424,0.00179276984,-0.0009944253,-23680.0,-27907.5,14210.5,
84.331,2.0441284,0.4808117,9.794854,-0.0045434236,-0.00273709,-0.0012608878,-23168.0,-27907.5,12674.5,
84.453,2.2069342,0.3634958,9.809219,-0.006541893,-0.0004721582,0.0011372734,-23936.0,-28419.5,13186.5,
84.568,2.1039834,0.3563132,9.785277,-0.0082739,0.007122021,-0.002326738,-23424.0,-28163.5,13442.5,
84.682,2.0800414,0.29645816,9.83795,0.008113548,0.0020592324,-0.001793813,-23424.0,-27907.5,13698.5,
84.797,2.1853864,0.66755944,9.88344,-0.004276961,-0.0051352492,-0.0031261258,-23168.0,-28419.5,13186.5,
84.913,2.2093284,0.4951769,9.849921,-0.010938525,0.0045906304,0.0026028176,-22656.0,-29187.5,13954.5,
85.035,2.0489168,0.25096834,9.825979,0.0025178344,0.0033915452,0.00020465534,-22912.0,-28675.5,14978.5,
85.153,2.0920124,0.56221456,9.926536,0.009712324,-0.005401712,-0.003925513,-22912.0,-27907.5,15746.5,
85.268,2.0680704,0.638829,9.86668,0.005582154,-0.0070004872,-0.0012608878,-22656.0,-27651.5,14466.5,
85.383,2.135108,0.6555884,9.794854,-0.01760009,0.0031250828,-0.000727963636,-22656.0,-28419.5,13442.5,
85.499,2.1327138,0.375466832,9.720634,-0.028258592,0.004857093,-0.002326738,-22656.0,-28675.5,14210.5,
85.621,2.0345516,0.18153646,9.768518,-0.001878798,-0.0004721582,-0.0019270442,-21888.0,-28931.5,16002.5,
85.737,2.075253,0.55982036,9.816402,-0.002411738,-0.0039361716,-0.0009944253,-22656.0,-28419.5,14978.5,
85.852,2.1782038,0.56700296,10.0151208,-0.0053428112,0.0011266135,7.142406e-05,-22144.0,-28163.5,14978.5,
85.972,2.1183486,0.42095664,9.902594,-0.011204988,0.0020592324,-0.0028596632,-22144.0,-28675.5,14466.5,
86.089,2.1063776,0.31561178,9.770912,-0.0012126416,-0.0012715459,-6.180722e-05,-22144.0,-29187.5,14722.5,
86.212,2.123137,0.56700296,9.828373,0.0026510656,0.0021924674,0.0011372734,-22656.0,-29187.5,13954.5,
86.329,2.168627,0.5167247,9.904987,-0.010005906,0.0025921612,-0.0028596632,-22912.0,-28931.5,15490.5,
86.445,2.0680704,0.375466832,9.821191,-0.009606212,0.003924474,0.0031357436,-22656.0,-28419.5,15490.5,
86.562,2.135108,0.3682842,9.916959,0.00065259636,-0.009132192,-0.004458438,-21888.0,-28675.5,15490.5,
86.677,2.192569,0.5023595,9.876257,-0.00028002262,0.0025921612,0.0014037369,-22144.0,-28163.5,15490.5,
86.799,2.1710212,0.36589,9.802037,-0.008806825,-0.00273709,-0.0001950385,-22656.0,-28419.5,15746.5,
86.913,2.1279254,0.380255232,9.828373,-0.0030778944,-0.0011383183,-0.004191975,-21888.0,-28419.5,14722.5,
87.031,2.1734154,0.4736291,9.895411,0.0015852153,0.003924474,0.000337886632,-22400.0,-28931.5,14978.5,
87.148,2.123137,0.40419724,9.890622,-0.0045434236,-7.246435e-05,-0.0025932006,-22656.0,-28675.5,14978.5,
87.265,2.1327138,0.401803016,9.833161,-0.005609274,0.0035247804,-0.0031261258,-22144.0,-28675.5,14466.5,
87.390,2.1255312,0.43532188,9.88344,-0.0060089676,0.0013930798,-0.001793813,-22144.0,-28419.5,14466.5,
87.506,2.1662328,0.41616824,9.816402,-0.0022784918,0.00019399822,-0.0003282698,-22144.0,-28163.5,14722.5,
87.623,2.087224,0.5191189,9.828373,-0.002411738,-7.246435e-05,-6.180722e-05,-22400.0,-28163.5,15490.5,
87.737,2.1279254,0.5215131,9.873863,-0.00520958,0.0041909368,0.00073758052,-22400.0,-28163.5,13698.5,
87.858,2.1422906,0.41856244,9.835556,-0.008806825,0.0025921612,0.0006043492,-22656.0,-28419.5,13442.5,
87.980,2.0896182,0.41616824,9.816402,-0.0038772672,0.0053900144,-0.0020602756,-23168.0,-28675.5,12418.5,
88.097,2.123137,0.5167247,9.794854,-0.0025449544,0.0049903208,0.00020465534,-23680.0,-28163.5,12930.5,
88.214,0.23411196,1.2589274,10.079764,0.016107426,0.057616664,-0.0019270442,-23424.0,-28163.5,12674.5,
88.332,2.8006962,0.04985538,10.199474,-1.3560057e-05,-0.015394058,0.00939761,-23424.0,-27907.5,13442.5,
88.449,2.6067658,0.713049236,9.684721,-0.0064086468,0.0205783768,0.009264381,-23424.0,-27907.5,13186.5,
88.573,2.3027022,0.48560008,10.03188,0.0034504532,0.011385422,-6.180722e-05,-23424.0,-27395.5,12674.5,
88.690,2.2596066,0.3515248,9.964843,0.0011855215,0.0053900144,-0.0045916692,-22912.0,-27651.5,14210.5,
88.807,2.1997516,0.42574504,9.916959,-0.0022784918,-0.0006053895,-0.005923982,-23680.0,-27651.5,13442.5,
88.923,2.1949632,0.401803016,9.936112,-0.0025449544,0.0077881776,0.00193666116,-23168.0,-27139.5,14210.5,
89.043,1.9962444,0.4808117,9.797249,-0.0054760424,0.0077881776,0.00366866784,-23424.0,-27651.5,13698.5,
89.166,2.0968008,0.5047537,9.835556,-0.00520958,-0.0032700152,-0.0003282698,-23680.0,-27907.5,13186.5,
89.281,2.168627,0.444898668,9.902594,-0.0049431176,0.0049903208,-0.005657519,-22656.0,-27651.5,13442.5,
89.398,2.1039834,0.48320588,9.818796,-0.0045434236,-0.0011383183,-0.002326738,-23168.0,-27651.5,13442.5,
89.515,2.1710212,0.459263868,9.833161,-0.004809886,0.000460457068,0.002336355,-23936.0,-27651.5,14722.5,
89.633,2.1949632,0.42335084,9.861892,-0.00933975,0.0063226336,-0.0028596632,-23168.0,-27907.5,13186.5,
89.754,2.1207428,0.464052268,9.823585,-0.0050763636,-0.000205695632,-0.0021935068,-23680.0,-27907.5,14466.5,
89.874,2.1303196,0.461658036,9.806826,-0.003344342,-0.0032700152,-0.0013941191,-22912.0,-27651.5,14466.5,
89.992,2.123137,0.42574504,9.744576,-0.0068083555,0.0063226336,0.00073758052,-23168.0,-27651.5,14978.5,
90.110,2.1255312,0.45208126,9.825979,0.000919044,0.001526311,-0.0060572124,-23424.0,-28163.5,13954.5,
90.233,2.1710212,0.4664465,9.845133,-0.0045434236,0.0029918552,-0.0003282698,-23168.0,-28163.5,13698.5,
90.349,2.135108,0.4760233,9.823585,-0.006142199,0.0020592324,0.0024695872,-23424.0,-27907.5,13698.5,
90.465,2.1015892,0.48560008,9.814008,-0.009472981,-0.0011383183,0.000337886632,-23168.0,-27651.5,13698.5,
90.583,2.1614444,0.4760233,9.873863,-0.0060089676,0.0003272295,0.0020698932,-23168.0,-27651.5,13698.5,
90.699,2.1327138,0.48799428,9.823585,-0.00414373,-0.0010050833,-0.00046150108,-23680.0,-28163.5,13954.5,
90.821,2.1279254,0.43292764,9.811614,0.0021181404,0.0043241644,-0.0019270442,-23680.0,-28163.5,14210.5,
90.939,2.168627,0.4712349,9.809219,-0.004809886,0.0008601546,-0.002726432,-23424.0,-28163.5,13442.5,
91.053,2.0944066,0.4808117,9.773307,-0.0030778944,0.00738848368,-0.0028596632,-23168.0,-28163.5,14210.5,
91.171,2.147079,0.461658036,9.857103,-0.0017455816,0.0016595423,0.00087081176,-23680.0,-28675.5,14210.5,
91.289,2.1327138,0.44011028,9.885834,-0.0040104984,0.0040577016,-0.0045916692,-23424.0,-28163.5,14978.5,
91.412,2.147079,0.461658036,9.806826,-0.0010794252,0.003924474,-0.0019270442,-22912.0,-27651.5,13954.5,
91.528,2.1446848,0.444898668,9.885834,-0.0040104984,0.0003272295,-0.0011276575,-23424.0,-27395.5,14210.5,
91.645,2.1375022,0.4688407,9.802037,-0.0037440508,0.0025921612,-0.0020602756,-23168.0,-28163.5,13186.5,
91.762,2.111166,0.43292764,9.835556,-0.002811417,-0.0026038588,-0.00339258784,-23424.0,-27907.5,14466.5,
91.879,2.1015892,0.444898668,9.806826,-0.0053428112,-0.000871852064,-0.0025932006,-23168.0,-28163.5,14466.5,
92.004,2.1255312,0.43771608,9.904987,-0.0044102072,0.000460457068,-0.000727963636,-23680.0,-27651.5,13442.5,
92.124,2.135108,0.4808117,9.802037,-0.006675124,0.003791239,0.0014037369,-23424.0,-27907.5,13442.5,
92.239,2.087224,0.44250448,9.825979,-0.0101391376,-7.246435e-05,-0.0024599694,-23680.0,-27907.5,13698.5,
92.356,2.168627,0.4975711,9.830768,-0.0058757364,6.0766936e-05,0.0020698932,-23424.0,-27395.5,14210.5,
92.472,2.1207428,0.459263868,9.811614,-0.0044102072,0.005656477,-0.0036590504,-22912.0,-26883.5,14466.5,
92.596,2.1590502,0.4736291,9.809219,-0.009872675,0.0028586238,0.0011372734,-22656.0,-27395.5,14210.5,
92.713,2.1015892,0.48560008,9.818796,-0.00028002262,0.007122021,-0.0043252064,-23936.0,-27907.5,14722.5,
92.830,2.123137,0.43292764,9.88344,-0.0020120292,0.0020592324,0.001004043,-23936.0,-28163.5,12674.5,
92.945,2.156656,0.5286957,9.871469,-0.0064086468,0.0023256988,0.0012705056,-23168.0,-27651.5,13186.5,
93.061,2.1518676,0.4760233,9.847527,-0.0064086468,-0.0023373962,-0.0012608878,-23936.0,-27907.5,13442.5,
93.183,2.1135602,0.48320588,9.835556,-0.0014791042,0.0041909368,-0.0001950385,-23168.0,-27651.5,14466.5,
93.300,2.1183486,0.42574504,9.859498,-0.0040104984,-0.0016712397,-6.180722e-05,-23680.0,-27907.5,14210.5,
93.417,2.1207428,0.43771608,9.797249,-0.0026781856,6.0766936e-05,-0.002326738,-23168.0,-27395.5,12930.5,
93.534,2.1446848,0.4664465,9.79246,-0.0040104984,0.0032583176,-0.0015273513,-23680.0,-27907.5,13698.5,
93.650,2.123137,0.461658036,9.816402,-0.00694158636,-0.0022041648,0.000337886632,-23424.0,-28163.5,12930.5,
93.775,2.099195,0.43771608,9.830768,-0.007074803,0.0068555624,-0.001793813,-23680.0,-27907.5,13186.5,
93.890,2.1542618,0.4688407,9.845133,-1.3560057e-05,-0.0043358652,-0.0035258192,-22912.0,-27651.5,13442.5,
94.007,2.1327138,0.5071479,9.758942,-0.0054760424,0.004723858,-0.0012608878,-23424.0,-27651.5,13954.5,
94.123,2.135108,0.459263868,9.849921,-0.00347757336,-7.246435e-05,-0.0020602756,-23168.0,-27651.5,13698.5,
94.242,2.0848298,0.43292764,9.909776,-0.0038772672,-0.0023373962,-0.00046150108,-23680.0,-27907.5,13442.5,
94.365,2.0776472,0.45208126,9.895411,-0.0050763636,-0.00313678,-0.0020602756,-23424.0,-28163.5,12162.5,
94.483,2.135108,0.4736291,9.833161,-0.0050763636,0.01111896,-0.001793813,-23680.0,-27907.5,13954.5,
94.597,2.1255312,0.41856244,9.816402,-0.005609274,0.0027253888,0.000337886632,-23168.0,-27139.5,13186.5,
94.715,2.1015892,0.449687068,9.876257,-0.004276961,0.0011266135,-0.0024599694,-23680.0,-27651.5,13442.5,
94.833,2.123137,0.464052268,9.835556,-0.0040104984,-0.0012715459,-0.0001950385,-23424.0,-27907.5,12674.5,
94.955,2.1063776,0.43292764,9.835556,-0.009606212,0.001526311,0.001004043,-23168.0,-28163.5,13442.5,
95.071,2.1279254,0.464052268,9.85471,-0.0053428112,0.0041909368,-0.0001950385,-23936.0,-28419.5,13954.5,
95.188,2.147079,0.4736291,9.873863,-0.0064086468,0.00179276984,-0.0036590504,-23168.0,-27907.5,12418.5,
95.305,2.147079,0.44250448,9.857103,-0.0057424904,0.0016595423,-0.0013941191,-22912.0,-27395.5,13698.5,
95.422,2.1446848,0.4712349,9.845133,-0.003344342,-0.000205695632,-0.0049913632,-23168.0,-27907.5,13698.5,
95.545,2.111166,0.456869668,9.847527,-0.0013458729,0.0035247804,-0.004458438,-22912.0,-27907.5,13186.5,
95.663,2.1734154,0.42335084,9.814008,-0.006142199,-0.000738620736,-0.0012608878,-22912.0,-28163.5,13698.5,
95.780,2.1446848,0.459263868,9.909776,-0.00414373,-0.000205695632,0.00073758052,-23168.0,-27395.5,12930.5,
95.897,2.1279254,0.461658036,9.818796,-0.00520958,0.0029918552,-6.180722e-05,-23168.0,-28163.5,13954.5,
96.019,2.1279254,0.42813924,9.876257,-0.0025449544,0.0055232496,-0.0035258192,-22912.0,-28419.5,14210.5,
96.137,2.1422906,0.44011028,9.818796,-0.0073412808,0.0003272295,-0.0013941191,-23680.0,-27651.5,12930.5,
96.254,2.1446848,0.44250448,9.842738,-0.004276961,0.004857093,-0.0013941191,-23168.0,-27907.5,13186.5,
96.370,2.1327138,0.4808117,9.806826,-0.00720804936,0.0024589264,-0.001793813,-23680.0,-28675.5,13954.5,
96.487,2.1063776,0.4760233,9.842738,-0.0038772672,0.000460457068,-0.004458438,-22912.0,-28675.5,13698.5,
96.610,2.1015892,0.48560008,9.799643,0.000119671224,0.0044573956,-6.180722e-05,-22912.0,-27907.5,13954.5,
96.728,2.1207428,0.4664465,9.85471,-0.0022784918,0.0016595423,-0.003925513,-23424.0,-27907.5,13186.5,
96.844,2.0896182,0.459263868,9.852315,-0.0032111108,0.000460457068,-6.180722e-05,-23936.0,-27651.5,12930.5,
96.963,2.1662328,0.41856244,9.833161,-0.0053428112,0.00059369208,-0.0011276575,-22912.0,-28163.5,13186.5,
97.081,2.1159544,0.49038848,9.895411,-0.008007437,0.00179276984,-0.0031261258,-23424.0,-28419.5,12930.5,
97.205,2.1446848,0.454475468,9.842738,-0.005609274,-0.0003389269,-0.001793813,-22912.0,-27651.5,13186.5,
97.321,2.0824356,0.5263015,9.83795,-0.0010794252,0.0043241644,-0.000727963636,-23424.0,-27395.5,13186.5,
97.438,2.1614444,0.40659144,9.857103,-0.008007437,0.0021924674,0.0006043492,-23168.0,-27395.5,13186.5,
97.554,2.0968008,0.456869668,9.881045,-0.0068083555,-0.0004721582,0.0006043492,-23424.0,-27139.5,13442.5,
97.673,2.0944066,0.4975711,9.861892,-0.003344342,0.004723858,0.0011372734,-23168.0,-27395.5,13186.5,
97.795,2.1375022,0.43053344,9.873863,-0.002411738,0.00019399822,-0.002726432,-23168.0,-27395.5,14466.5,
97.911,2.1327138,0.4688407,9.849921,-0.00361080468,-0.0004721582,-6.180722e-05,-23680.0,-27651.5,13698.5,
98.028,2.0968008,0.4951769,9.804431,-0.0045434236,0.0045906304,-0.0053910568,-22912.0,-27395.5,12930.5,
98.145,2.1710212,0.447292868,9.818796,-0.006541893,0.0012598485,-0.0012608878,-23168.0,-27651.5,13186.5,
98.263,2.1542618,0.42574504,9.828373,-0.0021452606,0.0035247804,-0.0005947314,-23168.0,-27907.5,13442.5,
98.387,2.1207428,0.45208126,9.790066,-0.0037440508,0.001526311,7.142406e-05,-23168.0,-27651.5,12674.5,
98.505,2.1494734,0.43771608,9.833161,-0.0038772672,0.001526311,-0.0009944253,-23168.0,-27907.5,13698.5,
98.621,2.1422906,0.4736291,9.825979,-0.004809886,0.00179276984,-0.0019270442,-23168.0,-27907.5,12930.5,
98.738,2.1207428,0.4736291,9.847527,-0.00014679134,-0.000205695632,-0.0019270442,-23424.0,-27907.5,13442.5,
98.856,2.1207428,0.461658036,9.833161,0.002384603,0.0029918552,-0.0012608878,-23680.0,-27907.5,13186.5,
98.979,2.147079,0.4712349,9.842738,-0.0045434236,0.0024589264,0.0014037369,-23168.0,-27907.5,13442.5,
99.096,2.1279254,0.4688407,9.857103,-0.0045434236,-0.0020709336,-6.180722e-05,-23680.0,-27651.5,13698.5,
99.218,2.1542618,0.461658036,9.809219,-0.0058757364,0.0008601546,-0.0031261258,-22912.0,-27907.5,13186.5,
99.336,2.1327138,0.43292764,9.806826,-0.0029446482,0.0011266135,0.0014037369,-23424.0,-27651.5,13186.5,
99.455,2.0824356,0.4951769,9.821191,-0.00720804936,0.0028586238,-0.0043252064,-23680.0,-28163.5,13186.5,
99.578,2.135108,0.4736291,9.88344,-0.004676655,0.0064558648,0.00047111884,-22912.0,-28163.5,13442.5,
99.692,2.1255312,0.43771608,9.835556,0.000119671224,0.00072692332,-0.004458438,-24192.0,-28163.5,12418.5,
99.809,2.099195,0.4664465,9.840344,-0.007607743,-0.0003389269,-0.004458438,-23168.0,-27651.5,13186.5,
99.923,2.1734154,0.459263868,9.828373,-0.0049431176,0.005256787,-0.0013941191,-23424.0,-27651.5,13442.5,
100.042,2.1183486,0.459263868,9.816402,-0.004276961,0.0028586238,-0.000727963636,-22912.0,-27907.5,13442.5,
100.167,2.1590502,0.40898564,9.835556,-0.001878798,0.0019260049,0.0020698932,-23424.0,-27395.5,12930.5,
100.285,2.1087718,0.43053344,9.85471,-0.001878798,0.0009933859,-0.0035258192,-23680.0,-27907.5,13698.5,
100.401,2.1327138,0.41137984,9.825979,-0.0050763636,0.0033915452,-0.001793813,-23680.0,-27907.5,12930.5,
100.518,2.1446848,0.48560008,9.773307,-0.005609274,0.0043241644,7.142406e-05,-23168.0,-27907.5,13186.5,
100.634,2.147079,0.45208126,9.758942,-0.0029446482,0.008454334,-0.0003282698,-23936.0,-27139.5,13442.5,
100.757,2.1255312,0.4688407,9.833161,-0.0049431176,-0.0035364776,-0.0063236756,-23424.0,-27139.5,13698.5,
100.874,2.0848298,0.4784175,9.828373,-0.0010794252,0.0023256988,-6.180722e-05,-23424.0,-27395.5,12674.5,
100.991,2.0776472,0.454475468,9.833161,-0.002411738,0.0013930798,0.0011372734,-23424.0,-27651.5,13954.5,
101.109,2.1446848,0.459263868,9.825979,-0.0050763636,6.0766936e-05,-0.0013941191,-23424.0,-27651.5,12930.5,
101.234,2.1494734,0.4808117,9.857103,-0.0044102072,0.0031250828,0.001004043,-23680.0,-27651.5,14210.5,
101.350,2.1375022,0.444898668,9.766124,-0.006142199,-0.000738620736,-0.002326738,-23168.0,-27651.5,13186.5,
101.468,2.1279254,0.45208126,9.859498,-0.0026781856,0.0028586238,-0.0016605817,-23424.0,-27651.5,13442.5,
101.587,2.0656762,0.4736291,9.852315,-0.007607743,0.0019260049,-0.003925513,-23424.0,-27395.5,11906.5,
101.705,2.1135602,0.454475468,9.794854,-0.0049431176,0.0009933859,0.0020698932,-23936.0,-27651.5,13442.5,
101.828,2.156656,0.5071479,9.840344,-0.0038772672,0.004723858,0.0006043492,-23424.0,-27395.5,13698.5,
101.942,2.1279254,0.41377404,9.806826,-0.002811417,0.0003272295,-0.0009944253,-23424.0,-27907.5,13186.5,
102.058,2.1135602,0.4784175,9.869075,-0.0054760424,0.000460457068,0.0006043492,-23424.0,-28163.5,13186.5,
102.175,2.1063776,0.42813924,9.761335,-0.0005464852,0.0013930798,0.0006043492,-23424.0,-27651.5,12418.5,
102.292,2.1279254,0.4999653,9.873863,-0.0040104984,0.0012598485,-0.002326738,-22912.0,-27139.5,13186.5,
102.414,2.1303196,0.43532188,9.816402,-0.00720804936,0.0028586238,0.00047111884,-23424.0,-27395.5,12674.5,
102.533,2.123137,0.464052268,9.828373,-0.0068083555,6.0766936e-05,-0.0019270442,-23936.0,-27651.5,11650.5,
102.653,2.1375022,0.48560008,9.842738,-0.0044102072,0.0016595423,-0.0021935068,-23424.0,-27651.5,13186.5,
102.771,2.1303196,0.4999653,9.888228,-0.0044102072,0.0029918552,0.0022031236,-22912.0,-28163.5,12418.5,
102.888,2.0944066,0.4760233,9.840344,-0.007607743,6.0766936e-05,-0.0028596632,-23936.0,-27139.5,13442.5,
103.010,2.1159544,0.45208126,9.768518,-0.00347757336,0.005123552,-0.00339258784,-23424.0,-27395.5,13954.5,
103.130,2.135108,0.459263868,9.869075,-0.0030778944,0.0045906304,0.0011372734,-23168.0,-27651.5,13442.5,
103.248,2.1398964,0.4784175,9.828373,-0.0044102072,0.00019399822,0.0018034298,-23680.0,-27395.5,12418.5,
103.366,2.1614444,0.4664465,9.816402,-0.007874206,0.008987259,-0.0052578252,-23936.0,-27651.5,13442.5,
103.481,2.1446848,0.49278268,9.888228,-0.00347757336,0.0016595423,-0.0028596632,-23168.0,-28163.5,12418.5,
103.605,2.123137,0.461658036,9.835556,-0.0044102072,0.0033915452,0.0039351304,-22912.0,-27395.5,12930.5,
103.723,2.1398964,0.401803016,9.814008,-0.0040104984,0.0016595423,0.0022031236,-23680.0,-27651.5,12930.5,
103.842,2.111166,0.447292868,9.885834,-0.00520958,-0.0006053895,-0.0003282698,-22400.0,-28163.5,12674.5,
103.957,2.1518676,0.4808117,9.847527,-0.00347757336,0.001526311,-0.0040587444,-23424.0,-28163.5,12674.5,
104.074,2.1087718,0.4760233,9.814008,-0.0054760424,0.00019399822,-0.0003282698,-23424.0,-27651.5,12418.5,
104.197,2.111166,0.456869668,9.825979,-0.005609274,0.0033915452,-0.003259357,-23680.0,-28163.5,12418.5,
104.313,2.1422906,0.43532188,9.873863,-0.0016123354,-0.0015380084,-0.0003282698,-23680.0,-27395.5,13186.5,
104.430,2.147079,0.456869668,9.797249,-0.0030778944,-0.0020709336,7.142406e-05,-23168.0,-27395.5,13186.5,
104.548,2.0848298,0.4736291,9.840344,0.0015852153,-0.000738620736,0.0006043492,-24192.0,-27907.5,13442.5,
104.665,2.1279254,0.49038848,9.809219,-0.004276961,-0.0012715459,0.00073758052,-23424.0,-27651.5,13442.5,
104.789,2.1638386,0.4688407,9.809219,-0.0016123354,0.001526311,0.001004043,-24192.0,-27651.5,12162.5,
104.905,2.123137,0.43771608,9.916959,-0.0025449544,0.0033915452,-0.0012608878,-23936.0,-27651.5,13442.5,
105.022,2.1494734,0.44011028,9.79246,-0.0014791042,0.00072692332,-0.0021935068,-23424.0,-27651.5,13186.5,
105.139,2.1087718,0.49038848,9.840344,-0.0029446482,-0.0012715459,0.00087081176,-22656.0,-27395.5,13186.5,
105.263,2.1375022,0.456869668,9.806826,-0.006142199,0.0013930798,-0.0001950385,-23424.0,-28419.5,14466.5,
105.380,2.1398964,0.43053344,9.830768,-0.0045434236,0.0040577016,-0.0020602756,-23680.0,-27651.5,13442.5,
105.498,2.1375022,0.4784175,9.79246,-0.00694158636,0.0013930798,-0.0025932006,-22912.0,-27907.5,13698.5,
105.615,2.1279254,0.461658036,9.85471,-0.0057424904,0.0057897084,0.0014037369,-23168.0,-27907.5,13698.5,
105.733,2.1039834,0.4760233,9.88344,-0.001878798,-0.000205695632,-0.0013941191,-23424.0,-27907.5,13954.5,
105.856,2.1087718,0.454475468,9.811614,-0.0092065184,-0.0014047772,-0.0035258192,-23424.0,-27907.5,14722.5,
105.974,2.099195,0.48320588,9.790066,-0.0054760424,0.0019260049,-0.001793813,-23680.0,-28419.5,12930.5,
106.092,2.1207428,0.459263868,9.852315,-0.0060089676,0.004857093,-0.00046150108,-23424.0,-28163.5,13698.5,
106.210,2.1327138,0.49038848,9.859498,-0.0044102072,0.0055232496,0.00073758052,-23424.0,-28163.5,12930.5,
106.328,2.1135602,0.444898668,9.840344,0.00371691568,0.0003272295,-0.000727963636,-23424.0,-28675.5,13186.5,
106.454,2.1039834,0.4784175,9.840344,-0.0057424904,0.0040577016,0.0022031236,-23424.0,-28419.5,12162.5,
106.571,2.1015892,0.4808117,9.782884,-0.00414373,-0.000205695632,-0.0025932006,-23680.0,-27907.5,13442.5,
106.688,2.1135602,0.4808117,9.847527,-0.00520958,0.0027253888,-0.00046150108,-23936.0,-28675.5,13698.5,
106.804,2.1159544,0.44250448,9.818796,-0.0057424904,0.000460457068,-0.000727963636,-23424.0,-27907.5,12930.5,
106.924,2.1710212,0.4784175,9.83795,-0.0053428112,-0.0011383183,-0.0013941191,-22656.0,-27907.5,13954.5,
107.046,2.1375022,0.461658036,9.814008,-0.0013458729,-0.0004721582,-0.0049913632,-23680.0,-27651.5,13698.5,
107.164,2.1614444,0.4784175,9.869075,-0.007874206,-0.000205695632,-0.000727963636,-23424.0,-27651.5,13954.5,
107.283,2.1135602,0.42574504,9.770912,-0.006541893,0.0020592324,-0.0031261258,-23936.0,-28163.5,13698.5,
107.400,2.1446848,0.4736291,9.835556,-0.0032111108,-0.005002022,-0.0011276575,-23424.0,-28163.5,12930.5,
107.516,2.0968008,0.5095421,9.797249,-0.0054760424,-0.000738620736,0.00073758052,-23680.0,-28419.5,14466.5,
107.640,2.147079,0.4760233,9.852315,0.000119671224,-0.0019377023,-0.0013941191,-23680.0,-28163.5,13698.5,
107.759,2.1518676,0.447292868,9.790066,-0.0016123354,0.005123552,-0.003925513,-23936.0,-28419.5,13698.5,
107.876,2.1422906,0.4784175,9.852315,-0.0014791042,0.005123552,-0.0043252064,-23168.0,-28163.5,13954.5,
107.993,2.1327138,0.4736291,9.773307,-0.0062754304,0.00179276984,-0.0015273513,-23424.0,-27651.5,14210.5,
108.111,2.1542618,0.4760233,9.794854,-0.0022784918,0.000460457068,0.0006043492,-23680.0,-27907.5,13442.5,
108.235,2.1255312,0.5047537,9.881045,-0.00774095936,0.001526311,0.0006043492,-23168.0,-27907.5,13442.5,
108.351,2.1446848,0.5071479,9.849921,-0.006142199,0.001526311,-0.002726432,-23424.0,-27907.5,13698.5,
108.466,2.1159544,0.4808117,9.871469,-0.001878798,-7.246435e-05,-0.002726432,-23424.0,-28163.5,13698.5,
108.581,2.1255312,0.464052268,9.840344,-0.00414373,0.0019260049,-0.001793813,-23168.0,-27395.5,13698.5,
108.698,2.1303196,0.48560008,9.830768,-0.0045434236,0.004723858,-0.0008611949,-23168.0,-27651.5,13698.5,
108.820,2.1183486,0.464052268,9.895411,-0.0013458729,6.0766936e-05,0.000337886632,-23424.0,-27395.5,14466.5,
108.940,2.156656,0.456869668,9.869075,-0.0068083555,-0.0035364776,0.00020465534,-23680.0,-27907.5,13442.5,
109.059,2.147079,0.4688407,9.840344,-0.0037440508,0.0023256988,-6.180722e-05,-23936.0,-27651.5,13954.5,
109.175,2.1159544,0.444898668,9.809219,-0.0012126416,-7.246435e-05,0.00073758052,-23424.0,-27907.5,13186.5,
109.299,2.123137,0.461658036,9.821191,-0.0045434236,-0.0003389269,-0.0036590504,-23424.0,-28163.5,12418.5,
109.416,2.147079,0.44250448,9.849921,-0.0010794252,0.001526311,-0.00046150108,-23168.0,-28675.5,13186.5,
109.533,2.1183486,0.454475468,9.835556,-0.003344342,-0.0012715459,-0.0031261258,-23680.0,-28163.5,14210.5,
109.651,2.1255312,0.454475468,9.86668,-0.0020120292,-0.000738620736,0.0026028176,-23680.0,-28163.5,12674.5,
109.770,2.1303196,0.4712349,9.893017,-0.0073412808,0.000460457068,-0.003925513,-23680.0,-28163.5,13186.5,
109.893,2.1494734,0.4760233,9.794854,-0.0038772672,0.003791239,-0.00339258784,-23680.0,-28163.5,13442.5,
110.010,2.135108,0.4808117,9.840344,-0.00694158636,0.0028586238,0.00286928,-23424.0,-27907.5,13442.5,
110.126,2.1446848,0.454475468,9.869075,-0.0026781856,0.0019260049,-0.0003282698,-23680.0,-27907.5,13442.5,
110.245,2.1494734,0.48560008,9.842738,-0.0037440508,0.0013930798,-0.0008611949,-23680.0,-27907.5,12674.5,
110.363,2.1303196,0.48799428,9.814008,-0.003344342,0.0021924674,0.0006043492,-23680.0,-27907.5,12930.5,
110.485,2.123137,0.461658036,9.845133,-0.0040104984,0.0012598485,-0.001793813,-23424.0,-28675.5,13186.5,
110.608,2.1710212,0.43053344,9.83795,-0.00081294776,0.004723858,-6.180722e-05,-23936.0,-28163.5,13186.5,
110.724,2.1638386,0.44250448,9.91217,-0.002811417,0.0043241644,0.00087081176,-23680.0,-27907.5,13186.5,
110.841,2.1255312,0.5143305,9.88344,-0.0005464852,-0.0012715459,-0.004458438,-23424.0,-27907.5,13442.5,
110.956,2.123137,0.4736291,9.85471,-0.008673593,0.0029918552,-0.0015273513,-22912.0,-28419.5,13442.5,
111.077,2.0800414,0.49038848,9.849921,-0.0092065184,-7.246435e-05,-0.002326738,-23424.0,-28675.5,13698.5,
111.194,2.111166,0.4975711,9.806826,-0.0016123354,0.0012598485,7.142406e-05,-23680.0,-29187.5,13442.5,
111.309,2.1207428,0.4784175,9.840344,-0.0044102072,0.0009933859,-0.0009944253,-23424.0,-29187.5,13186.5,
111.425,2.1303196,0.4760233,9.849921,-0.0054760424,0.0011266135,0.0006043492,-23680.0,-28675.5,13698.5,
111.541,2.1398964,0.43771608,9.749365,-0.0058757364,0.004723858,-0.002726432,-23936.0,-28419.5,14210.5,
111.664,2.1063776,0.42335084,9.814008,-0.00014679134,0.0021924674,0.000337886632,-23936.0,-27651.5,14210.5,
111.783,2.1590502,0.449687068,9.816402,-0.0032111108,6.0766936e-05,0.00087081176,-23168.0,-28163.5,13442.5,
111.902,2.1039834,0.454475468,9.859498,-0.006541893,0.0012598485,0.0014037369,-23168.0,-28163.5,13698.5,
112.020,2.1087718,0.444898668,9.821191,-0.0032111108,0.0032583176,-0.001793813,-23424.0,-28163.5,13186.5,
112.138,2.1662328,0.4712349,9.852315,-0.0016123354,0.0024589264,0.00073758052,-23168.0,-27651.5,13442.5,
112.261,2.1279254,0.4664465,9.797249,-0.005609274,0.000460457068,-0.0025932006,-23936.0,-28163.5,12418.5,
112.379,2.1734154,0.449687068,9.835556,-0.00081294776,-0.0022041648,0.0006043492,-23424.0,-27907.5,12674.5,
112.497,2.1159544,0.444898668,9.806826,-0.002411738,-7.246435e-05,-0.0052578252,-23680.0,-27907.5,13186.5,
112.614,2.135108,0.44250448,9.782884,-0.0030778944,-0.000871852064,-0.002326738,-23680.0,-27395.5,12930.5,
112.737,2.111166,0.48320588,9.845133,-0.003344342,0.0036580116,-0.0025932006,-23680.0,-28163.5,13442.5,
112.853,2.1255312,0.44011028,9.842738,-0.0025449544,0.0036580116,0.00047111884,-23936.0,-27651.5,12930.5,
112.971,2.1494734,0.42335084,9.871469,-0.00347757336,-0.0063343348,-0.0012608878,-23680.0,-27907.5,13954.5,
113.089,2.0800414,0.4688407,9.806826,-0.010538831,0.0009933859,0.00047111884,-23936.0,-27395.5,13954.5,
113.205,2.1159544,0.4736291,9.861892,-0.004676655,-0.000205695632,-0.0021935068,-23168.0,-27139.5,13954.5,
113.328,2.099195,0.45208126,9.871469,-0.0014791042,0.0041909368,-0.0024599694,-23680.0,-27139.5,13698.5,
113.446,2.1638386,0.40659144,9.904987,-0.006142199,0.004723858,-0.0001950385,-23680.0,-27395.5,13442.5,
113.562,2.1303196,0.454475468,9.871469,-0.00347757336,-0.000738620736,-0.005524288,-23168.0,-27907.5,13442.5,
113.682,2.1303196,0.461658036,9.904987,-0.0013458729,0.00179276984,-6.180722e-05,-23680.0,-28163.5,13698.5,
113.801,2.087224,0.449687068,9.799643,-0.0030778944,0.0024589264,7.142406e-05,-23680.0,-27651.5,13954.5,
113.924,2.099195,0.4688407,9.88344,-0.004276961,0.0013930798,-0.002726432,-24192.0,-27651.5,13442.5,
114.038,2.1303196,0.5095421,9.797249,-0.0038772672,0.00059369208,-0.0028596632,-23936.0,-28419.5,13186.5,
114.155,2.1279254,0.397014632,9.890622,-0.010272369,0.003791239,0.00020465534,-23424.0,-28163.5,13698.5,
114.274,2.1375022,0.464052268,9.864286,-0.004809886,-0.0019377023,0.00020465534,-23424.0,-27651.5,13954.5,
114.393,2.0920124,0.459263868,9.833161,-0.007474512,-0.0004721582,-0.0016605817,-23936.0,-27907.5,13954.5,
114.517,2.1063776,0.4736291,9.821191,-0.006541893,0.0036580116,0.00020465534,-24192.0,-28163.5,12674.5,
114.633,2.1375022,0.4999653,9.790066,-0.001878798,0.000460457068,-0.0015273513,-23168.0,-27395.5,13442.5,
114.751,2.135108,0.43292764,9.852315,-0.009472981,0.0013930798,-0.000727963636,-24192.0,-27907.5,13442.5,
114.868,2.156656,0.454475468,9.859498,-0.0030778944,0.0020592324,-0.0015273513,-23680.0,-27395.5,12930.5,
114.986,2.1303196,0.459263868,9.818796,-0.0062754304,0.0055232496,-0.0019270442,-23424.0,-27651.5,13186.5,
115.126,2.1159544,0.48320588,9.830768,-0.001878798,0.0032583176,-0.0012608878,-23424.0,-27651.5,13954.5,
115.243,2.1255312,0.4736291,9.830768,-0.0016123354,-0.005401712,-0.0040587444,-23424.0,-28163.5,12674.5,
115.359,2.123137,0.454475468,9.830768,-0.0030778944,0.0036580116,-0.0009944253,-23680.0,-27651.5,14978.5,
115.477,2.111166,0.4736291,9.897805,-0.006541893,0.0031250828,-0.0003282698,-23680.0,-28163.5,14722.5,
115.592,2.1255312,0.44250448,9.835556,-0.0037440508,0.0012598485,0.0006043492,-23168.0,-28163.5,13954.5,
115.714,2.1183486,0.45208126,9.88344,-0.006541893,-0.0003389269,-0.002326738,-23424.0,-28163.5,14466.5,
115.830,2.0920124,0.42574504,9.816402,-0.0022784918,0.0012598485,0.0018034298,-23936.0,-28931.5,13186.5,
115.948,2.1398964,0.4999653,9.74697,-0.00028002262,-0.0022041648,-0.0048581316,-23168.0,-28419.5,11650.5,
116.065,2.087224,0.43053344,9.828373,-0.006541893,-0.0003389269,-0.004191975,-23168.0,-28419.5,11906.5,
116.180,2.1590502,0.42335084,9.814008,-0.008140668,0.0028586238,0.00047111884,-22912.0,-27907.5,12930.5,
116.302,2.1590502,0.447292868,9.876257,-0.004276961,0.00698879,-0.0016605817,-23680.0,-27139.5,13186.5,
116.419,2.1015892,0.44011028,9.852315,-0.004676655,-0.0006053895,-0.0012608878,-24192.0,-27395.5,12162.5,
116.535,2.0800414,0.4712349,9.873863,-0.00067971648,0.000460457068,0.0026028176,-23168.0,-27395.5,13186.5,
116.654,2.1375022,0.43532188,9.859498,-0.0062754304,-0.0030035526,-0.003259357,-24448.0,-28163.5,12930.5,
116.777,2.111166,0.459263868,9.79246,-0.0037440508,-0.0023373962,-0.0003282698,-24704.0,-28419.5,13954.5,
116.893,2.1375022,0.4999653,9.861892,-0.007074803,0.005256787,0.00073758052,-23936.0,-28675.5,12930.5,
117.009,2.111166,0.43771608,9.845133,-0.004809886,-0.0023373962,-0.0031261258,-23936.0,-27907.5,12674.5,
117.125,2.147079,0.48560008,9.909776,-0.0064086468,0.0012598485,-0.0008611949,-23424.0,-28163.5,13954.5,
117.241,2.1063776,0.4688407,9.785277,-0.0022784918,0.00179276984,-0.0005947314,-23680.0,-28419.5,14466.5,
117.364,2.1518676,0.461658036,9.840344,-0.00520958,-0.0035364776,-0.0019270442,-23680.0,-28419.5,13442.5,
117.481,2.1039834,0.447292868,9.823585,-0.0038772672,0.0028586238,-0.0025932006,-23680.0,-27907.5,13442.5,
117.600,2.1015892,0.4712349,9.840344,0.0003861338,0.0011266135,0.00087081176,-23936.0,-27907.5,12930.5,
117.717,2.1183486,0.4784175,9.861892,-0.0038772672,0.0036580116,-0.001793813,-24448.0,-27395.5,13698.5,
117.833,2.1135602,0.45208126,9.845133,-0.00081294776,-0.0016712397,-0.0063236756,-23936.0,-27651.5,13954.5,
117.958,2.1446848,0.4736291,9.835556,-0.0038772672,0.00019399822,-0.003259357,-23680.0,-27907.5,13698.5,
118.074,2.1375022,0.4736291,9.842738,-0.0022784918,-0.00273709,0.00047111884,-23936.0,-28419.5,13442.5,
118.190,2.1446848,0.454475468,9.821191,-0.006541893,0.0028586238,-0.0011276575,-23936.0,-27907.5,13954.5,
118.308,2.1159544,0.4712349,9.797249,-0.0049431176,0.0016595423,-0.0076559876,-23680.0,-27907.5,13442.5,
118.427,2.1159544,0.456869668,9.797249,-0.003344342,0.0008601546,0.0026028176,-24192.0,-27907.5,13442.5,
118.550,2.1159544,0.456869668,9.797249,-0.002811417,0.0024589264,-0.0001950385,-24704.0,-28419.5,12930.5,
118.667,2.1255312,0.4784175,9.814008,-0.0064086468,6.0766936e-05,0.00047111884,-24192.0,-28931.5,12930.5,
118.784,2.1207428,0.461658036,9.83795,-0.0037440508,0.00019399822,-0.0001950385,-24192.0,-28931.5,12930.5,
118.901,2.1279254,0.444898668,9.833161,-0.004809886,0.00059369208,-0.0036590504,-24192.0,-28931.5,12418.5,
119.019,2.156656,0.48799428,9.770912,-0.008140668,0.0036580116,0.000337886632,-24960.0,-29443.5,13698.5,
119.142,2.111166,0.5143305,9.852315,-0.0012126416,6.0766936e-05,0.000337886632,-24704.0,-29443.5,13186.5,
119.260,2.1135602,0.461658036,9.849921,0.0013187528,0.0016595423,-0.004191975,-24192.0,-29699.5,11394.5,
119.378,2.1207428,0.4975711,9.847527,-0.00361080468,-0.0034032464,-0.0052578252,-23936.0,-31235.5,11650.5,
119.496,2.1375022,0.4688407,9.864286,-0.004276961,0.007921409,-0.0016605817,-23168.0,-30979.5,10626.5,
119.612,2.1494734,0.454475468,9.823585,-0.00347757336,0.0012598485,-0.00339258784,-20608.0,-29699.5,10882.5,
119.738,2.1375022,0.48320588,9.821191,-0.0082739,0.006056171,0.0006043492,-21376.0,-27651.5,11650.5,
119.854,2.1303196,0.4712349,9.847527,-0.005609274,0.0024589264,-0.0016605817,-22656.0,-25603.5,12162.5,
119.970,2.0920124,0.444898668,9.869075,-0.0020120292,0.00059369208,-0.0040587444,-23168.0,-25603.5,12418.5,
120.089,2.099195,0.5023595,9.806826,-0.0017455816,0.0021924674,-0.0005947314,-24448.0,-26371.5,13698.5,
120.204,2.1422906,0.459263868,9.840344,-0.0050763636,0.001526311,-0.0019270442,-24448.0,-26371.5,13186.5,
120.328,2.1159544,0.456869668,9.847527,-0.001878798,-0.0028703212,-0.0024599694,-24704.0,-26883.5,13698.5,
120.446,2.111166,0.4688407,9.833161,-0.0038772672,0.0029918552,-0.003259357,-24192.0,-27395.5,13442.5,
120.561,2.111166,0.449687068,9.811614,-0.0030778944,-0.004069403,-0.0031261258,-24192.0,-27907.5,13698.5,
120.678,2.111166,0.44011028,9.835556,-0.00694158636,0.0011266135,0.0006043492,-23936.0,-27651.5,13954.5,
120.801,2.1087718,0.461658036,9.811614,-0.001878798,0.0008601546,0.001004043,-23936.0,-27907.5,13954.5,
120.917,2.147079,0.5095421,9.859498,-0.001878798,-0.0019377023,-0.0019270442,-24448.0,-28163.5,13954.5,
121.034,2.135108,0.459263868,9.840344,-0.0029446482,0.0033915452,0.0011372734,-23680.0,-27651.5,14210.5,
121.152,2.1518676,0.4784175,9.845133,-0.0049431176,0.0049903208,-0.002326738,-23680.0,-28419.5,13442.5,
121.268,2.1758096,0.461658036,9.881045,-0.00414373,0.00019399822,-0.005524288,-24448.0,-27907.5,13442.5,
121.391,2.1039834,0.4951769,9.806826,-0.0032111108,0.0031250828,7.142406e-05,-23680.0,-28163.5,12674.5,
121.507,2.1446848,0.49278268,9.737393,-0.004676655,0.0012598485,-0.000727963636,-23936.0,-28419.5,13186.5,
121.625,2.123137,0.456869668,9.823585,-0.0049431176,0.001526311,-0.00752275664,-24192.0,-28163.5,13186.5,
121.744,2.087224,0.44011028,9.83795,-0.008940056,0.005123552,0.00087081176,-23936.0,-27651.5,14210.5,
121.858,2.1327138,0.456869668,9.811614,-0.0050763636,-0.0023373962,-0.0021935068,-23936.0,-27907.5,12674.5,
121.989,2.1135602,0.4712349,9.86668,-0.0026781856,-0.0006053895,7.142406e-05,-23680.0,-27651.5,13442.5,
122.104,2.1375022,0.447292868,9.857103,-0.0060089676,0.0028586238,-0.0016605817,-23424.0,-27651.5,13954.5,
122.223,2.1327138,0.49038848,9.830768,-0.00347757336,0.0011266135,0.0020698932,-23680.0,-27395.5,12674.5,
122.341,2.1159544,0.447292868,9.847527,-0.004676655,0.001526311,0.000337886632,-24192.0,-28419.5,13186.5,
122.460,2.1015892,0.454475468,9.828373,-0.003344342,-0.00380293668,-0.0024599694,-23936.0,-27907.5,12930.5,
122.584,2.135108,0.4736291,9.825979,-0.004276961,-0.0003389269,-0.0031261258,-23936.0,-26627.5,14210.5,
122.699,2.1518676,0.461658036,9.852315,-0.0010794252,0.0045906304,-0.0016605817,-23424.0,-27395.5,13954.5,
122.818,2.1015892,0.48560008,9.811614,-0.0029446482,-0.0004721582,-0.001793813,-23680.0,-27907.5,14722.5,
122.934,2.1398964,0.49038848,9.871469,-0.007607743,-0.0043358652,-0.00339258784,-23680.0,-27139.5,13186.5,
123.052,2.0800414,0.456869668,9.847527,0.0013187528,0.0003272295,-0.001793813,-23424.0,-26627.5,14466.5,
123.175,2.1494734,0.444898668,9.847527,-0.006541893,0.0040577016,0.00073758052,-23424.0,-27651.5,13954.5,
123.293,2.1446848,0.4688407,9.823585,-0.004276961,-0.0012715459,-0.0009944253,-23936.0,-27651.5,13698.5,
123.409,2.1518676,0.43053344,9.825979,-0.004276961,-0.0015380084,0.00073758052,-24192.0,-26883.5,14466.5,
123.526,2.1446848,0.449687068,9.869075,-0.0060089676,0.0036580116,0.00286928,-23424.0,-26627.5,13442.5,
123.643,2.147079,0.5047537,9.797249,-0.0054760424,-0.000871852064,0.0014037369,-23424.0,-25859.5,12930.5,
123.766,2.1375022,0.4951769,9.790066,-0.006142199,0.00059369208,-0.0003282698,-24448.0,-25859.5,13186.5,
123.882,2.1327138,0.43771608,9.787672,-0.002811417,0.0003272295,0.0027360496,-24704.0,-26115.5,13186.5,
123.999,2.147079,0.447292868,9.797249,-0.00414373,-0.0011383183,0.0011372734,-25216.0,-27139.5,13186.5,
124.116,2.1422906,0.444898668,9.876257,-0.007474512,-0.0022041648,-0.002326738,-24704.0,-27395.5,13954.5,
124.233,2.1303196,0.4951769,9.809219,-0.0029446482,0.0064558648,-0.0031261258,-23936.0,-27395.5,13186.5,
124.356,2.1518676,0.48560008,9.881045,-0.006675124,-0.0011383183,-0.001793813,-23936.0,-27395.5,13698.5,
124.472,2.168627,0.456869668,9.758942,-0.002811417,0.0035247804,-0.0009944253,-23936.0,-27651.5,12418.5,
124.590,2.1039834,0.44250448,9.802037,-0.0058757364,0.0076549464,0.0022031236,-24192.0,-26883.5,13186.5,
124.708,2.1303196,0.4951769,9.85471,-0.0062754304,0.0049903208,-0.0021935068,-23936.0,-27395.5,13698.5,
124.830,2.1183486,0.456869668,9.835556,-0.00774095936,-0.0003389269,-0.005923982,-23424.0,-27395.5,12674.5,
124.948,2.0968008,0.44011028,9.809219,-0.0013458729,-0.0004721582,-0.0037922818,-23936.0,-27139.5,13954.5,
125.067,2.1183486,0.464052268,9.816402,-0.00361080468,0.00059369208,-0.0040587444,-23424.0,-27907.5,13698.5,
125.187,2.147079,0.4736291,9.842738,-0.0029446482,0.0023256988,-0.0035258192,-23424.0,-28163.5,13698.5,
125.303,2.099195,0.464052268,9.768518,-0.0025449544,6.0766936e-05,-0.0048581316,-23680.0,-27139.5,13442.5,
125.427,2.1063776,0.4784175,9.845133,-0.00094617908,-0.0006053895,-0.0011276575,-23680.0,-27395.5,13186.5,
125.544,2.1518676,0.49278268,9.845133,-0.0032111108,0.0032583176,-0.0036590504,-23424.0,-27395.5,13186.5,
125.661,2.1087718,0.48799428,9.799643,-1.3560057e-05,0.0041909368,-0.0005947314,-23424.0,-26883.5,14210.5,
125.778,2.1494734,0.45208126,9.849921,-0.005609274,-0.0019377023,-0.0013941191,-24192.0,-27395.5,14722.5,
125.898,2.1015892,0.44011028,9.861892,-0.0032111108,0.0035247804,-0.002326738,-24192.0,-27907.5,13954.5,
126.022,2.1279254,0.43532188,9.83795,-0.0044102072,0.00072692332,0.0006043492,-23680.0,-27139.5,14210.5,
126.139,2.123137,0.4975711,9.885834,-0.0004132688,0.0028586238,-0.0028596632,-23680.0,-27395.5,13954.5,
126.254,2.1518676,0.4688407,9.823585,-0.0044102072,0.0031250828,-0.00339258784,-23936.0,-27395.5,13698.5,
126.373,2.1422906,0.42574504,9.818796,-0.0017455816,0.0036580116,-0.0008611949,-23424.0,-27139.5,13954.5,
126.489,2.1422906,0.4975711,9.859498,-0.0040104984,0.0012598485,-0.003259357,-24192.0,-27651.5,12930.5,
126.611,2.075253,0.461658036,9.821191,-0.0044102072,-0.0003389269,-0.002326738,-23936.0,-27651.5,13954.5,
126.728,2.1255312,0.44250448,9.830768,-0.00361080468,0.0023256988,-0.0001950385,-23936.0,-27651.5,12674.5,
126.846,2.1207428,0.456869668,9.821191,-0.0049431176,0.0016595423,-0.0003282698,-24192.0,-27651.5,13186.5,
126.964,2.1303196,0.45208126,9.823585,-0.0037440508,0.0023256988,-0.0019270442,-23424.0,-27139.5,12418.5,
127.084,2.0944066,0.43771608,9.823585,-0.004276961,-0.0011383183,-0.0011276575,-23680.0,-27651.5,14466.5,
127.207,2.0968008,0.4664465,9.890622,-0.00694158636,6.0766936e-05,0.000337886632,-23936.0,-27651.5,13954.5,
127.326,2.1159544,0.42095664,9.818796,-0.0030778944,-0.000871852064,0.00193666116,-24192.0,-27651.5,14466.5,
127.446,2.1207428,0.4688407,9.921747,-0.006541893,0.0021924674,-0.0021935068,-23680.0,-27139.5,14466.5,
127.563,2.135108,0.49038848,9.802037,-0.0060089676,0.00072692332,-0.0009944253,-23424.0,-27139.5,13442.5,
127.679,2.1542618,0.43532188,9.895411,-0.00720804936,-0.0019377023,0.0006043492,-24192.0,-27139.5,14210.5,
127.804,2.1159544,0.45208126,9.809219,-0.003344342,-0.0003389269,-0.00339258784,-23680.0,-27651.5,14722.5,
127.923,2.123137,0.4736291,9.835556,-0.008806825,0.0011266135,-0.0035258192,-23936.0,-27907.5,13698.5,
128.039,2.1446848,0.45208126,9.857103,-0.00520958,0.000460457068,-0.0012608878,-23424.0,-26883.5,13442.5,
128.158,2.1279254,0.444898668,9.804431,-0.009606212,0.00072692332,-0.0009944253,-23168.0,-27139.5,13954.5,
128.282,2.1422906,0.48560008,9.881045,-0.0013458729,0.00179276984,-0.0021935068,-23424.0,-26115.5,13954.5,
128.400,2.1039834,0.459263868,9.840344,-0.008407116,-0.000205695632,-0.001793813,-24192.0,-26883.5,13698.5,
128.518,2.1279254,0.43292764,9.830768,-0.0049431176,0.0043241644,-0.0011276575,-23680.0,-26883.5,14210.5,
128.636,2.1638386,0.461658036,9.790066,-0.0064086468,0.0011266135,-0.0029928944,-23936.0,-27139.5,13698.5,
128.754,2.1279254,0.4951769,9.821191,-0.0012126416,0.00072692332,-0.0040587444,-23936.0,-27395.5,14466.5,
128.877,2.1159544,0.49278268,9.916959,-0.0064086468,0.0003272295,-0.0001950385,-23168.0,-27139.5,14466.5,
128.993,2.1446848,0.464052268,9.845133,-0.0057424904,0.0020592324,-0.0020602756,-22912.0,-26627.5,13698.5,
129.112,2.1207428,0.464052268,9.773307,-0.0040104984,0.00019399822,-0.003259357,-23168.0,-27395.5,14466.5,
129.230,2.0656762,0.5239073,9.847527,-0.004676655,-0.000738620736,-0.0011276575,-23168.0,-27395.5,14210.5,
129.348,2.099195,0.44250448,9.835556,-0.0040104984,-7.246435e-05,-0.000727963636,-23680.0,-27395.5,13186.5,
129.471,2.1542618,0.44250448,9.885834,-0.0021452606,0.003924474,-0.0003282698,-23680.0,-27139.5,13186.5,
129.587,2.123137,0.459263868,9.802037,-0.004676655,-0.00273709,-0.00046150108,-22912.0,-27395.5,12930.5,
129.703,2.111166,0.45208126,9.897805,-0.0064086468,-0.0019377023,-0.0029928944,-23680.0,-27139.5,14210.5,
129.822,2.168627,0.4999653,9.86668,-0.0049431176,0.0043241644,-0.0008611949,-23424.0,-27139.5,13442.5,
129.938,2.1063776,0.449687068,9.861892,-0.0022784918,0.0016595423,-0.0012608878,-23424.0,-27395.5,14210.5,
130.062,2.0728588,0.42574504,9.835556,-0.002811417,-0.0016712397,-0.00046150108,-23424.0,-27139.5,12674.5,
130.180,2.1279254,0.5191189,9.85471,-0.0062754304,-0.00180447468,0.0031357436,-24192.0,-27651.5,12674.5,
130.297,2.1207428,0.454475468,9.835556,-0.00414373,-0.0011383183,-0.0031261258,-23936.0,-27395.5,13698.5,
130.415,2.1590502,0.461658036,9.847527,-0.0073412808,-0.0020709336,-0.0008611949,-23168.0,-27139.5,12674.5,
130.533,2.1039834,0.4784175,9.842738,-0.004809886,0.0036580116,0.002336355,-23424.0,-26883.5,12674.5,
130.654,2.1398964,0.459263868,9.833161,-0.006142199,-0.0011383183,-0.005124594,-23424.0,-26627.5,13442.5,
130.771,2.1279254,0.48560008,9.828373,-0.0057424904,0.0033915452,-0.0020602756,-23168.0,-26627.5,14722.5,
130.889,2.147079,0.447292868,9.802037,-0.008007437,0.0009933859,-0.0020602756,-24192.0,-26883.5,13698.5,
131.006,2.1135602,0.42574504,9.847527,-0.00028002262,0.006056171,-0.0020602756,-23936.0,-26883.5,13442.5,
131.124,2.135108,0.4736291,9.751759,-0.007074803,0.0012598485,-0.002326738,-23680.0,-26627.5,13186.5,
131.244,2.1279254,0.461658036,9.821191,-0.0013458729,-0.0026038588,-0.001793813,-23936.0,-26627.5,13186.5,
131.363,2.1207428,0.454475468,9.878652,-0.0068083555,0.0011266135,-0.0021935068,-23936.0,-26883.5,12418.5,
131.483,2.147079,0.394620432,9.816402,-0.0016123354,0.0055232496,-0.0031261258,-23424.0,-26371.5,12930.5,
131.601,2.147079,0.4808117,9.861892,-0.0068083555,-0.0003389269,0.00020465534,-23424.0,-26371.5,13186.5,
131.724,2.1159544,0.42335084,9.871469,-0.0068083555,0.0044573956,-0.00046150108,-23424.0,-26371.5,13698.5,
131.844,2.1710212,0.461658036,9.859498,-0.003344342,-0.000205695632,-0.000727963636,-23424.0,-26371.5,13698.5,
131.964,2.1303196,0.43292764,9.830768,-0.0038772672,0.006056171,-0.003925513,-23424.0,-26627.5,12930.5,
132.080,2.1063776,0.4808117,9.775701,-0.0062754304,0.0016595423,-0.0003282698,-23680.0,-26627.5,13186.5,
132.197,2.135108,0.461658036,9.890622,-0.008940056,-0.0023373962,-0.0035258192,-23936.0,-26883.5,12930.5,
132.319,2.147079,0.444898668,9.811614,0.0013187528,-0.0023373962,-0.000727963636,-22912.0,-26371.5,13954.5,
132.438,2.1446848,0.41856244,9.845133,-0.00094617908,-0.0006053895,-0.0020602756,-23168.0,-27139.5,13698.5,
132.556,2.1494734,0.4784175,9.821191,-0.0016123354,0.0024589264,-0.0009944253,-23680.0,-26627.5,13186.5,
132.673,2.1494734,0.45208126,9.900199,-0.002411738,0.001526311,-0.0003282698,-23680.0,-26627.5,13442.5,
132.790,2.087224,0.41137984,9.842738,-0.0013458729,0.00019399822,-0.001793813,-23424.0,-26883.5,12674.5,
132.912,2.111166,0.41616824,9.847527,-0.008673593,0.00072692332,-0.0047249004,-22912.0,-26627.5,12674.5,
133.028,2.156656,0.4736291,9.869075,-0.0050763636,0.003791239,-0.005124594,-22656.0,-26883.5,13186.5,
133.143,2.1135602,0.45208126,9.861892,-0.0082739,0.003791239,0.0006043492,-23168.0,-27395.5,11138.5,
133.260,2.1303196,0.456869668,9.876257,-0.001878798,0.00072692332,0.00020465534,-22912.0,-26883.5,12930.5,
133.384,2.1183486,0.4999653,9.857103,-0.005609274,-0.000205695632,-0.0012608878,-22912.0,-27139.5,12674.5,
133.507,2.1015892,0.49278268,9.782884,-0.007607743,-0.0020709336,-0.002326738,-23424.0,-26883.5,13442.5,
133.623,2.1159544,0.43771608,9.881045,-0.00720804936,0.0029918552,-0.0035258192,-23424.0,-27907.5,12674.5,
133.741,2.1255312,0.456869668,9.847527,-0.0054760424,-0.0032700152,-0.001793813,-23424.0,-28419.5,13698.5,
133.859,2.1422906,0.447292868,9.907382,-0.0068083555,-0.000871852064,0.00047111884,-23424.0,-27651.5,13698.5,
133.980,2.1207428,0.44011028,9.825979,-0.0016123354,-0.0048687904,0.000337886632,-23424.0,-28163.5,13442.5,
134.105,2.1542618,0.41137984,9.821191,-0.005609274,0.00059369208,-0.0047249004,-23168.0,-28163.5,14210.5,
134.223,2.1159544,0.43292764,9.816402,-0.0030778944,0.0035247804,-0.0048581316,-23936.0,-28163.5,13442.5,
134.342,2.1303196,0.4736291,9.864286,-0.002811417,0.001526311,7.142406e-05,-24192.0,-28163.5,13442.5,
134.456,2.1063776,0.444898668,9.873863,-0.0012126416,0.0036580116,-0.0003282698,-23424.0,-27395.5,12930.5,
134.573,2.0848298,0.447292868,9.823585,-0.004276961,-7.246435e-05,-0.00339258784,-23936.0,-26883.5,13186.5,
134.698,2.1710212,0.447292868,9.818796,-0.004276961,-0.000205695632,-0.0025932006,-23168.0,-26883.5,12930.5,
134.817,2.1398964,0.4712349,9.818796,-0.0068083555,0.0035247804,-0.002326738,-23936.0,-27395.5,13442.5,
134.936,2.1135602,0.4712349,9.900199,-0.008407116,0.00019399822,-0.00046150108,-23936.0,-27139.5,13954.5,
135.053,2.1398964,0.459263868,9.787672,-0.0058757364,0.0053900144,-0.0011276575,-23424.0,-26627.5,12930.5,
135.178,2.1638386,0.43532188,9.881045,0.000119671224,0.0024589264,0.00073758052,-23680.0,-27395.5,13186.5,
135.297,2.1303196,0.48799428,9.869075,-0.0060089676,0.0012598485,-0.00046150108,-23680.0,-26371.5,12674.5,
135.415,2.0944066,0.4951769,9.909776,-0.0037440508,0.004723858,-0.0021935068,-23168.0,-27139.5,12930.5,
135.531,2.1446848,0.461658036,9.878652,-0.0060089676,-0.000205695632,-0.002326738,-23424.0,-26627.5,13442.5,
135.650,2.1159544,0.49278268,9.857103,-0.00347757336,0.0029918552,-0.0015273513,-23424.0,-27395.5,13442.5,
135.774,2.1375022,0.4760233,9.847527,-0.009739429,0.0059229432,-0.002726432,-23424.0,-27651.5,12162.5,
135.890,2.0896182,0.4784175,9.821191,-0.0053428112,0.000460457068,-0.0020602756,-23424.0,-26883.5,12930.5,
136.008,2.1398964,0.43532188,9.873863,-0.00520958,0.00019399822,-0.0021935068,-23424.0,-26627.5,12930.5,
136.125,2.1135602,0.4664465,9.847527,-0.0045434236,-0.000871852064,-0.0008611949,-23424.0,-27395.5,12674.5,
136.242,2.123137,0.4688407,9.861892,-0.0053428112,0.0013930798,-0.001793813,-23424.0,-27395.5,12162.5,
136.364,2.1542618,0.456869668,9.842738,-0.00347757336,-0.0023373962,-0.0009944253,-23936.0,-27395.5,13186.5,
136.483,2.1159544,0.456869668,9.806826,-0.005609274,0.0031250828,-0.0020602756,-23168.0,-27139.5,12162.5,
136.601,2.1015892,0.43292764,9.885834,-0.0013458729,0.0016595423,0.0014037369,-22912.0,-27395.5,13186.5,
136.719,2.1303196,0.459263868,9.840344,-0.010405585,-0.0016712397,0.00020465534,-23424.0,-26371.5,12930.5,
136.838,2.1063776,0.42335084,9.814008,-0.0058757364,-0.0015380084,0.0006043492,-22912.0,-26883.5,13186.5,
136.960,2.1183486,0.444898668,9.857103,-0.0029446482,-7.246435e-05,-0.0009944253,-23424.0,-27395.5,13186.5,
137.078,2.1375022,0.45208126,9.802037,-0.0022784918,-0.0020709336,-0.0057907504,-23680.0,-27139.5,13186.5,
137.198,2.1159544,0.4688407,9.847527,-0.0068083555,-0.0016712397,-0.001793813,-23168.0,-27139.5,12162.5,
137.316,2.156656,0.4664465,9.804431,-0.0068083555,6.0766936e-05,0.00047111884,-23680.0,-27139.5,12162.5,
137.434,2.0944066,0.4951769,9.799643,-0.0062754304,-0.0022041648,-0.0020602756,-23424.0,-27395.5,13186.5,
137.557,2.1303196,0.4760233,9.909776,0.0021181404,0.0020592324,-0.0013941191,-23680.0,-27395.5,12930.5,
137.674,2.1422906,0.447292868,9.814008,-0.0044102072,0.0016595423,0.0011372734,-23168.0,-27651.5,13186.5,
137.793,2.1518676,0.4664465,9.845133,-0.004276961,0.0019260049,-0.005524288,-23168.0,-27395.5,12162.5,
137.910,2.1135602,0.45208126,9.861892,-0.0038772672,-0.00180447468,0.00047111884,-23680.0,-27395.5,11906.5,
138.036,2.1255312,0.5023595,9.885834,-0.00520958,0.005656477,-0.0035258192,-23168.0,-27139.5,12162.5,
138.151,2.1255312,0.45208126,9.814008,-0.0017455816,0.0009933859,-0.0037922818,-23424.0,-27907.5,12418.5,
138.271,2.1614444,0.459263868,9.814008,-0.0068083555,-0.0014047772,0.0011372734,-23424.0,-27395.5,11394.5,
138.391,2.1590502,0.44011028,9.83795,-0.00347757336,0.0011266135,-0.005657519,-22656.0,-27395.5,12674.5,
138.509,2.1279254,0.4712349,9.770912,-0.004809886,0.0031250828,-0.0019270442,-22912.0,-27395.5,13186.5,
138.631,2.1255312,0.4688407,9.876257,0.0003861338,0.0059229432,-0.0031261258,-23680.0,-27907.5,13186.5,
138.748,2.1039834,0.42095664,9.804431,-0.0040104984,-7.246435e-05,-6.180722e-05,-23424.0,-27651.5,12162.5,
138.865,2.1255312,0.444898668,9.830768,-0.00414373,-0.000871852064,-0.000727963636,-23168.0,-27907.5,12674.5,
138.984,2.1207428,0.4784175,9.85471,-0.0062754304,0.0028586238,-0.00046150108,-23168.0,-27907.5,13698.5,
139.101,2.1087718,0.464052268,9.83795,0.0021181404,0.0003272295,-0.002326738,-23936.0,-27907.5,13186.5,
139.223,2.1375022,0.48320588,9.828373,-0.00774095936,0.0012598485,-0.002326738,-23168.0,-27907.5,12162.5,
