# epoch_start_s=1609459202
timestamp_s,accel_x,accel_y,accel_z,gyro_x,gyro_y,gyro_z,mag_x,mag_y,mag_z,wind_vane_deg
# wind_vane_deg is blank for the first 270 s, populated for the final 30 s
0.109,-1.1976206,-0.172805368,9.799643,-0.005609274,0.00179276984,-0.0028596632,31360.0,-28163.5,-125.5,
0.228,-1.190438,-0.191959,9.785277,-0.0029446482,0.00059369208,0.00047111884,32128.0,-27651.5,-637.5,
0.344,-1.1688902,-0.16322857,9.778095,-0.002811417,0.0031250828,0.0030025114,30848.0,-28163.5,-637.5,
0.461,-1.2167742,-0.16322857,9.754153,-0.0021452606,0.006189406,7.142406e-05,31872.0,-27395.5,642.5,
0.584,-1.1377656,-0.15844018,9.761335,-0.00414373,-0.0035364776,-0.0028596632,32128.0,-27139.5,1154.5,
0.700,-1.1449482,-0.191959,9.773307,-0.0032111108,0.0029918552,0.0027360496,32640.0,-28419.5,386.5,
0.816,-1.2191684,-0.168016976,9.861892,-0.0017455816,-0.0006053895,0.0034022052,32128.0,-27651.5,386.5,
0.934,-1.2071974,-0.206324184,9.809219,0.0027842968,0.0063226336,-0.0008611949,32640.0,-26883.5,386.5,
1.052,-1.1760728,-0.1943532,9.787672,-0.0010794252,0.0013930798,-0.0003282698,31616.0,-26883.5,642.5,
1.173,-1.2311394,-0.21111262,9.878652,-0.00028002262,0.0016595423,-0.0001950385,31872.0,-26883.5,-637.5,
1.290,-1.0635455,-0.09619093,9.756547,-0.008140668,0.0040577016,0.00047111884,31872.0,-27651.5,-125.5,
1.406,-1.1712844,-0.13689235,9.751759,-0.0037440508,0.0067223272,-0.0003282698,31872.0,-27907.5,-125.5,
1.523,-1.1688902,-0.12970975,9.708663,-0.0026781856,0.001526311,0.000337886632,32384.0,-27139.5,386.5,
1.641,-1.1641018,-0.108161928,9.749365,-0.0026781856,0.008720797,-0.0048581316,32128.0,-27395.5,642.5,
1.765,-1.2598698,-0.25420824,9.904987,-0.0049431176,-0.004069403,-0.003925513,31616.0,-27651.5,130.5,
1.881,-1.2119858,-0.21350682,9.881045,0.0010522902,0.009786647,-0.00792245,31360.0,-28163.5,-893.5,
1.997,-1.1329772,-0.15844018,9.725423,0.0013187528,0.021644228,-0.0060572124,31872.0,-28163.5,-1405.5,
2.115,-1.2694466,-0.206324184,9.842738,-0.0062754304,-0.0014047772,0.0040683616,31616.0,-28419.5,-2429.5,
2.233,-1.0204496,-0.15604596,9.646414,-0.00028002262,-0.000738620736,-0.0013941191,31616.0,-28419.5,-3197.5,
2.358,-0.9893251,-0.14646916,9.533886,-0.00414373,0.0239091584,0.0015369672,30848.0,-29187.5,-2941.5,
2.474,-1.0443919,-0.172805368,9.529098,-0.0062754304,0.01977899,0.0022031236,31104.0,-29699.5,-3197.5,
2.591,-1.2119858,-0.22547782,9.79246,-0.0026781856,0.011785116,0.0018034298,30848.0,-30211.5,-4221.5,
2.707,-1.439435,-0.237448816,10.027092,-0.001878798,0.022443614,0.00073758052,31104.0,-30467.5,-4221.5,
2.831,-1.0515745,-0.17759377,9.76373,-0.0053428112,0.00019399822,-0.0053910568,30592.0,-30723.5,-5501.5,
2.949,-1.250293,-0.0219706668,9.83795,-0.00014679134,0.015648822,0.0014037369,31104.0,-31235.5,-7037.5,
3.067,-1.2335336,-0.172805368,9.79246,-0.00081294776,0.0055232496,0.0015369672,30080.0,-31491.5,-7293.5,
3.185,-1.1928322,-0.11773874,9.730211,-0.00361080468,0.0033915452,0.0018034298,30336.0,32764.5,-8317.5,
3.303,-1.0850933,-0.438561736,9.574588,0.0027842968,0.0013930798,-0.014717244,30080.0,32764.5,-7037.5,
3.427,-1.3771858,-0.08661412,9.835556,-0.0058757364,-0.015394058,0.005267442,29824.0,-32515.5,-7037.5,
3.543,-1.3771858,-0.14646916,9.952871,-0.0014791042,-0.008865729,0.0012705056,29312.0,32764.5,-6525.5,
3.660,-1.3987336,-0.27336186,9.893017,-0.00014679134,-0.0034032464,-0.0052578252,29312.0,-32515.5,-5501.5,
3.777,-1.2574756,-0.11534454,9.818796,-0.0030778944,-0.008066338,0.0040683616,29312.0,-31747.5,-5245.5,
3.894,-1.0922758,-0.15844018,9.735,-0.002811417,0.010719266,0.0027360496,29056.0,-31747.5,-4733.5,
4.015,-1.3891568,-0.203929984,9.972025,-0.0040104984,0.0016595423,-0.0049913632,28800.0,-32515.5,-4733.5,
4.133,-1.1257946,-0.045912684,9.809219,-0.00520958,0.018180214,0.024719204,29568.0,-32259.5,-6525.5,
4.248,-1.1688902,0.16477707,9.916959,0.000785827636,-0.02645225,-0.005524288,29056.0,32252.5,-6525.5,
4.365,-1.4705598,0.58136816,10.345521,-0.00081294776,0.013517121,0.0064665236,29568.0,32508.5,-7549.5,
4.483,-1.106641,-0.15365176,9.845133,-0.004676655,0.008187875,0.003268974,29312.0,31740.5,-9085.5,
4.603,-1.2478988,0.109710424,9.778095,-0.00081294776,0.013650352,0.011662542,29056.0,30972.5,-9341.5,
4.722,-0.824125236,-0.175199568,9.58177,0.0041166096,0.014849434,-0.004191975,28800.0,31484.5,-10109.5,
4.840,-1.37958,-0.22547782,9.88344,0.001451984,-0.0526988068,-0.0029928944,29824.0,31484.5,-11133.5,
4.955,-1.1042468,-0.093796712,9.67275,-0.002811417,0.00698879,0.009664073,30080.0,31996.5,-11645.5,
5.069,-0.9510179,-0.012393862,9.622472,-0.0029446482,0.0036580116,0.0035354364,31104.0,31996.5,-13693.5,
5.192,-4.5614744,0.023519162,13.113218,-0.00094617908,-0.083741692,0.0031357436,30848.0,30716.5,-15229.5,
5.310,-1.6788552,-0.15125756,9.88344,0.0010522902,-0.016193446,-0.008322144,31104.0,30204.5,-17277.5,
5.426,-1.3891568,-0.13210395,9.907382,-0.0082739,0.021377762,-0.0011276575,29312.0,28924.5,-17789.5,
5.542,-1.295783,-0.14886336,9.876257,-0.0030778944,0.000460457068,0.0048677484,29824.0,28412.5,-17021.5,
5.660,-1.1353714,-0.22547782,9.732605,0.000785827636,0.003791239,-0.0013941191,29568.0,29180.5,-16509.5,
5.784,-1.202409,-0.12492134,9.782884,-0.0058757364,0.0063226336,-0.0003282698,29824.0,28924.5,-16253.5,
5.900,-1.238322,-0.110556132,9.71824,-0.00067971648,-0.013395589,-0.0011276575,29824.0,29180.5,-17277.5,
6.017,-1.3412728,0.011548154,9.83795,-0.00694158636,-0.030315958,0.0015369672,29824.0,28412.5,-20605.5,
6.135,-1.1114294,-0.440956,9.751759,-0.004676655,0.0105860344,7.142406e-05,29056.0,24828.5,-24189.5,
6.251,-1.6980088,-0.13928655,9.9672368,-0.00028002262,-0.038842752,0.006200061,29312.0,23292.5,-28797.5,
6.374,-0.9821425,-0.203929984,9.687116,-0.008407116,0.013517121,0.0039351304,29056.0,23036.5,-31613.5,
6.491,-1.3891568,-0.13210395,9.852315,-0.004276961,-0.020456844,-0.0040587444,28288.0,23292.5,32642.5,
6.607,-0.74511656,-0.14168076,9.426147,-0.0050763636,0.032302726,-0.0089883,28288.0,23292.5,30594.5,
6.723,-0.51766736,-0.749808,9.71824,0.012110487,-0.03551197,0.012195467,29056.0,23548.5,26498.5,
6.837,-1.2718408,-0.06985471,9.802037,-0.010672063,-0.010198042,-0.0063236756,31616.0,25596.5,23170.5,
6.960,-0.9845367,-0.203929984,9.600924,-0.0026781856,0.02297654,0.0015369672,-31872.0,27132.5,19842.5,
7.076,-1.1760728,-0.15844018,9.761335,-0.0045434236,0.011385422,-0.0021935068,-30592.0,28156.5,19330.5,
7.194,-1.2574756,-0.25660244,9.655991,-0.0017455816,0.00912049,-0.002326738,-31104.0,27388.5,17794.5,
7.309,-1.1353714,-0.24223724,9.701481,-0.0054760424,0.00059369208,0.0035354364,-30848.0,26620.5,16770.5,
7.426,-1.2095916,-0.1943532,9.701481,-0.005609274,-0.0051352492,0.0063332924,-30080.0,26108.5,16514.5,
7.547,-1.331696,-0.3595531,9.74697,-0.006541893,-0.017126064,0.0044680556,-30080.0,27388.5,13698.5,
7.662,-1.3388786,-0.208718384,9.998362,0.001451984,-0.011930045,-0.0028596632,-28544.0,27388.5,8578.5,
7.779,-1.262264,-0.206324184,9.773307,-0.001878798,0.007122021,-0.0015273513,-28288.0,28156.5,6530.5,
7.895,-1.3580322,-0.06506631,10.072581,0.0025178344,-0.038176596,-0.0020602756,-28032.0,27644.5,7810.5,
8.013,-1.3532438,-0.30927488,9.665567,0.009712324,-0.11531748,0.017791178,-28288.0,28924.5,6786.5,
8.135,-1.1569192,-0.08182572,9.754153,-0.0045434236,-0.0015380084,-0.0011276575,-28800.0,29948.5,6786.5,
8.252,-1.0300264,-0.203929984,9.696692,-0.0068083555,0.069740708,0.005533905,-28288.0,32252.5,6018.5,
8.371,-1.4466176,-0.28054446,9.833161,0.00371691568,-0.0016712397,-0.002326738,-27264.0,32764.5,2178.5,
8.489,-1.2670524,-0.16562277,9.794854,-0.0016123354,-0.0004721582,-0.0064569064,-24960.0,32764.5,-6013.5,
8.606,-1.142554,-0.201535792,9.780489,-0.0044102072,0.0012598485,-0.0049913632,-22912.0,-32003.5,-12669.5,
8.730,-1.1808612,-0.208718384,9.567405,-0.0053428112,0.017380826,0.0006043492,-22912.0,-31491.5,-14717.5,
8.848,-1.1856496,-0.179988,9.756547,-0.0038772672,0.0055232496,-0.002726432,-22912.0,-32003.5,-14461.5,
8.963,-1.2335336,-0.191959,9.821191,-0.0026781856,0.00019399822,0.0012705056,-22400.0,-32259.5,-15229.5,
9.080,-1.1760728,-0.13210395,9.797249,-0.00067971648,0.004857093,-0.0015273513,-22656.0,-32003.5,-14973.5,
9.197,-1.2431104,-0.110556132,9.725423,-0.004276961,0.0096534152,-0.001793813,-22400.0,-31491.5,-14461.5,
9.320,-1.2550814,-0.179988,9.768518,-0.0021452606,0.0011266135,0.0040683616,-22400.0,-32003.5,-14461.5,
9.436,-1.202409,-0.17759377,9.794854,0.0003861338,0.0008601546,0.0006043492,-22144.0,-32259.5,-14461.5,
9.553,-1.2478988,-0.172805368,9.818796,-0.0029446482,-0.0022041648,-0.008322144,-22656.0,-31235.5,-14973.5,
9.670,-1.2790234,-0.172805368,9.811614,-0.008540362,0.00179276984,-0.0009944253,-22144.0,-31747.5,-14717.5,
9.794,-1.2407162,-0.16562277,9.766124,-0.00347757336,0.006189406,-0.0005947314,-23168.0,-31747.5,-14973.5,
9.917,-1.2095916,-0.1823822,9.756547,-0.0012126416,0.0013930798,-0.0053910568,-22400.0,-32003.5,-14717.5,
10.034,-1.1976206,-0.175199568,9.79246,-0.001878798,0.003791239,-0.0029928944,-22656.0,-31747.5,-14717.5,
10.150,-1.2239568,-0.170411168,9.761335,-0.003344342,0.0025921612,-0.0001950385,-22912.0,-31747.5,-15485.5,
10.267,-1.2287452,-0.170411168,9.787672,-0.0044102072,-0.0010050833,0.00073758052,-22400.0,32764.5,-14461.5,
10.386,-1.3245134,-0.1943532,9.907382,-0.0017455816,-0.0020709336,-0.000727963636,-22656.0,-31747.5,-14973.5,
10.509,-1.166496,-0.22068942,9.818796,-1.3560057e-05,0.00019399822,-0.0003282698,-22656.0,-31747.5,-14717.5,
10.625,-1.2455046,-0.1943532,9.768518,-0.00067971648,0.0064558648,-0.0016605817,-22656.0,-31747.5,-14205.5,
10.742,-1.2574756,-0.15125756,9.744576,-0.0040104984,-0.0006053895,-0.000727963636,-21632.0,-31491.5,-14461.5,
10.859,-1.2048032,-0.21111262,9.804431,-0.00094617908,0.001526311,-0.0015273513,-22656.0,-31491.5,-14205.5,
10.982,-1.2933888,-0.24223724,9.969631,-0.0040104984,-0.010597732,-0.00046150108,-22144.0,-31747.5,-14717.5,
11.099,-1.2071974,-0.23266042,9.780489,0.000919044,0.0040577016,-0.0037922818,-22400.0,-32003.5,-14461.5,
11.217,-1.2119858,-0.17759377,9.816402,-0.00028002262,0.0020592324,-0.000727963636,-22400.0,-31491.5,-14717.5,
11.337,-1.1712844,-0.1871706,9.739788,-0.003344342,0.0077881776,-0.0029928944,-22656.0,-31747.5,-13693.5,
11.453,-1.2526872,-0.19914159,9.742182,-0.0049431176,0.0011266135,-0.0019270442,-22144.0,-31235.5,-13693.5,
11.578,-1.2526872,-0.179988,9.818796,-0.004276961,0.0033915452,0.00020465534,-22656.0,-31747.5,-14205.5,
11.694,-1.262264,-0.168016976,9.775701,0.0034504532,0.0045906304,-0.0020602756,-22400.0,-31491.5,-14717.5,
11.811,-1.2119858,-0.14168076,9.766124,0.0030507594,0.00179276984,0.0006043492,-22400.0,-31491.5,-14205.5,
11.929,-1.2071974,-0.16083437,9.804431,-0.00414373,0.0045906304,-6.180722e-05,-22400.0,-31235.5,-14461.5,
12.045,-1.1928322,-0.168016976,9.775701,-0.0025449544,0.0043241644,0.00047111884,-22656.0,-30979.5,-14973.5,
12.170,-1.1712844,-0.179988,9.732605,-0.0017455816,0.0057897084,-0.0020602756,-22912.0,-31491.5,-13437.5,
12.285,-1.2981772,-0.191959,9.861892,-0.0021452606,-0.008466035,-0.001793813,-22912.0,-31747.5,-13693.5,
12.400,-1.2239568,-0.1943532,9.794854,-0.0010794252,-0.0028703212,0.00087081176,-22656.0,-31235.5,-14461.5,
12.516,-1.2119858,-0.14407496,9.797249,-1.3560057e-05,0.0027253888,-0.0036590504,-23424.0,32764.5,-14205.5,
12.634,-1.2598698,-0.24463144,9.737393,-0.0029446482,6.0766936e-05,-0.0001950385,-23424.0,-32515.5,-13437.5,
12.757,-1.2095916,-0.170411168,9.756547,-0.0030778944,0.0028586238,0.00193666116,-22400.0,-31491.5,-14461.5,
12.876,-1.2550814,-0.191959,9.780489,-0.0022784918,0.00019399822,-0.00046150108,-22656.0,-31491.5,-14205.5,
12.993,-1.3053598,-0.201535792,9.814008,-0.0022784918,-0.0059346408,0.0026028176,-22656.0,-31491.5,-15229.5,
13.112,-1.2694466,-0.170411168,9.732605,-0.00520958,-0.0004721582,0.00047111884,-22912.0,-32003.5,-13693.5,
13.235,-1.2191684,-0.1871706,9.723028,-0.00014679134,0.0027253888,0.0034022052,-22912.0,-32003.5,-14205.5,
13.351,-1.226351,-0.22547782,9.778095,-0.00094617908,-0.00380293668,0.00073758052,-22400.0,-32003.5,-14461.5,
13.469,-1.2215626,-0.12252714,9.794854,-0.002411738,0.005123552,0.00073758052,-22912.0,-32003.5,-14461.5,
13.586,-1.2239568,-0.15365176,9.914564,-0.0050763636,-0.0032700152,-0.0049913632,-22912.0,-32259.5,-13437.5,
13.702,-1.2119858,-0.179988,9.811614,-0.0020120292,0.0043241644,0.00073758052,-22912.0,32764.5,-14205.5,
13.824,-1.2000148,-0.15604596,9.756547,0.0003861338,0.0031250828,-0.0005947314,-23424.0,32764.5,-13693.5,
13.941,-1.2071974,-0.14646916,9.811614,0.0002528876,0.0019260049,0.00087081176,-23680.0,32764.5,-14973.5,
14.059,-1.2431104,-0.201535792,9.782884,-0.0053428112,0.0053900144,-0.0020602756,-23680.0,-32515.5,-14717.5,
14.178,-1.2431104,-0.170411168,9.782884,0.0011855215,-0.000205695632,0.0027360496,-23424.0,-32515.5,-13949.5,
14.297,-1.2478988,-0.15365176,9.751759,-0.0022784918,0.003791239,-0.0012608878,-23680.0,32764.5,-13949.5,
14.421,-1.2239568,-0.21350682,9.775701,-0.0004132688,-0.0032700152,-0.0011276575,-23936.0,-32259.5,-14461.5,
14.538,-1.2119858,-0.16083437,9.806826,-0.0004132688,0.0012598485,-0.000727963636,-23424.0,32508.5,-14461.5,
14.656,-1.1856496,-0.191959,9.811614,-0.0044102072,0.0033915452,0.00087081176,-23680.0,32764.5,-15229.5,
14.772,-1.2191684,-0.201535792,9.720634,0.0002528876,0.0045906304,0.000337886632,-23424.0,-32515.5,-13181.5,
14.891,-1.1952264,-0.14407496,9.74697,-0.00347757336,-0.0016712397,0.0031357436,-23936.0,-32259.5,-14973.5,
15.015,-1.2239568,-0.206324184,9.679933,-0.0057424904,0.0008601546,-0.0036590504,-24192.0,-32259.5,-15485.5,
15.133,-1.1808612,-0.16083437,9.794854,0.000785827636,0.006189406,-0.0015273513,-23424.0,32508.5,-14973.5,
15.251,-1.2287452,-0.208718384,9.751759,-0.0022784918,0.0063226336,-0.0063236756,-23168.0,-32515.5,-14461.5,
15.369,-1.2191684,-0.1847764,9.86668,-0.0082739,0.0021924674,0.00087081176,-23424.0,32508.5,-13693.5,
15.490,-1.1832554,-0.206324184,9.802037,-0.0050763636,0.009919878,-0.0008611949,-23168.0,31996.5,-14717.5,
15.607,-1.1928322,-0.196747384,9.782884,-0.007474512,-0.0022041648,-0.0011276575,-23424.0,31996.5,-14973.5,
15.725,-1.2000148,-0.203929984,9.83795,-0.0053428112,0.0016595423,-0.0001950385,-23424.0,32508.5,-13949.5,
15.843,-1.2478988,-0.1847764,9.787672,-0.00094617908,0.0027253888,0.002336355,-24192.0,31996.5,-14461.5,
15.959,-1.2311394,-0.11534454,9.74697,-0.0026781856,0.004723858,-0.0008611949,-23680.0,32252.5,-14717.5,
16.081,-1.2167742,-0.15604596,9.758942,0.0002528876,0.000460457068,-6.180722e-05,-22656.0,32252.5,-13949.5,
16.198,-1.2359278,-0.1847764,9.782884,-0.00414373,-0.0003389269,-0.000727963636,-23936.0,31996.5,-13949.5,
16.314,-1.1808612,-0.179988,9.71824,-0.0014791042,0.0025921612,0.0014037369,-23936.0,31740.5,-15229.5,
16.430,-1.1760728,-0.175199568,9.773307,-0.0032111108,0.00059369208,-0.0024599694,-23680.0,32252.5,-14205.5,
16.548,-1.2478988,-0.1943532,9.849921,-0.0037440508,-0.0019377023,-0.005524288,-23680.0,31740.5,-12669.5,
16.671,-1.21438,-0.1895648,9.797249,-0.0017455816,0.004857093,-0.0016605817,-23424.0,31740.5,-14717.5,
16.786,-1.2311394,-0.1871706,9.806826,-0.0022784918,0.006189406,-0.00339258784,-23680.0,31996.5,-14717.5,
16.903,-1.2167742,-0.12492134,9.799643,0.000119671224,0.004723858,0.00193666116,-23680.0,32252.5,-13693.5,
17.022,-1.2359278,-0.19914159,9.768518,-0.0005464852,0.0036580116,0.0022031236,-23680.0,32508.5,-14717.5,
17.140,-1.2335336,-0.179988,9.797249,-0.0025449544,0.0013930798,0.0006043492,-23936.0,32252.5,-14205.5,
17.262,-1.2478988,-0.206324184,9.778095,-0.0044102072,0.0028586238,0.0006043492,-23424.0,32252.5,-14973.5,
17.380,-1.2335336,-0.1895648,9.751759,-0.0037440508,-0.000871852064,-0.002726432,-23936.0,31996.5,-15485.5,
17.497,-1.2311394,-0.208718384,9.770912,0.0011855215,0.0077881776,-0.0016605817,-23680.0,32252.5,-14973.5,
17.616,-1.2311394,-0.16562277,9.790066,-0.0044102072,0.0032583176,0.0006043492,-23680.0,32252.5,-14461.5,
17.733,-1.1569192,-0.170411168,9.76373,-0.0022784918,0.0021924674,-0.0029928944,-23680.0,32508.5,-14717.5,
17.857,-1.226351,-0.239843016,9.823585,0.00065259636,0.00059369208,0.00020465534,-23168.0,32252.5,-13693.5,
17.975,-1.2359278,-0.17759377,9.814008,-0.0038772672,-0.0004721582,0.0014037369,-23936.0,32252.5,-14461.5,
18.094,-1.2215626,-0.22547782,9.785277,-0.00094617908,-0.0003389269,-0.0053910568,-23168.0,32252.5,-14973.5,
18.211,-1.2287452,-0.172805368,9.744576,-0.0037440508,0.0021924674,0.0012705056,-23168.0,32508.5,-14461.5,
18.335,-1.190438,-0.15365176,9.787672,-0.0037440508,-0.0032700152,-0.0031261258,-23680.0,32764.5,-15485.5,
18.452,-1.2119858,-0.168016976,9.76373,-0.001878798,0.0036580116,-0.000727963636,-22656.0,32764.5,-14205.5,
18.570,-1.2455046,-0.191959,9.79246,-0.0044102072,0.0021924674,-0.000727963636,-23168.0,32764.5,-15229.5,
18.687,-1.2287452,-0.21590102,9.818796,-0.0032111108,6.0766936e-05,-0.003259357,-23424.0,-32259.5,-14717.5,
18.804,-1.1377656,-0.28533286,9.675144,-0.008806825,0.007122021,-0.0009944253,-23680.0,32508.5,-14461.5,
18.925,-1.1736786,-0.09858513,9.761335,-0.0013458729,0.003791239,-0.0008611949,-24192.0,-32515.5,-14717.5,
19.041,-1.2455046,-0.179988,9.799643,-0.0030778944,0.0016595423,7.142406e-05,-23424.0,-32259.5,-15229.5,
19.157,-1.226351,-0.208718384,9.76373,0.0010522902,-0.004469093,-6.180722e-05,-23424.0,-32259.5,-14973.5,
19.274,-1.2407162,-0.201535792,9.960054,0.000119671224,-0.010597732,0.0039351304,-23424.0,-32515.5,-14973.5,
19.393,-1.295783,-0.22068942,9.790066,-0.0030778944,-0.0039361716,-0.004191975,-23936.0,32252.5,-14205.5,
19.515,-1.202409,-0.168016976,9.768518,-0.004676655,0.0023256988,0.0011372734,-22400.0,-32259.5,-13949.5,
19.633,-1.2838118,-0.168016976,9.849921,-0.0026781856,-0.0023373962,-0.0037922818,-23680.0,-32515.5,-12925.5,
19.753,-1.2431104,-0.1871706,9.737393,-0.0022784918,0.004723858,-0.0015273513,-23936.0,-32259.5,-13693.5,
19.870,-1.2550814,-0.191959,9.816402,-0.00081294776,0.0036580116,-0.0052578252,-23168.0,32764.5,-14205.5,
19.985,-1.2071974,-0.201535792,9.794854,-0.0004132688,-0.0004721582,0.0039351304,-23680.0,-32515.5,-14205.5,
20.109,-1.2071974,-0.170411168,9.751759,-0.0016123354,0.0023256988,-0.0003282698,-23424.0,32764.5,-14205.5,
20.227,-1.238322,-0.22308362,9.754153,-0.0032111108,0.004723858,-0.00339258784,-24192.0,32508.5,-14461.5,
20.344,-1.178467,-0.1895648,9.775701,-0.0040104984,0.0055232496,-0.00339258784,-23936.0,32508.5,-14717.5,
20.461,-1.2215626,-0.21350682,9.79246,-0.0004132688,0.0016595423,-0.0043252064,-23424.0,32508.5,-13437.5,
20.577,-1.262264,-0.12013294,9.794854,0.0005193651,0.0045906304,0.0030025114,-23680.0,-32515.5,-14461.5,
20.700,-1.21438,-0.16083437,9.754153,-0.0049431176,-0.0003389269,-0.0021935068,-23680.0,32508.5,-15229.5,
20.815,-1.2574756,-0.196747384,9.816402,-0.005609274,0.004723858,0.00073758052,-23424.0,32764.5,-14205.5,
20.932,-1.226351,-0.14407496,9.814008,-0.0014791042,0.001526311,-0.0020602756,-23424.0,32252.5,-14205.5,
21.049,-1.2048032,-0.16322857,9.785277,-0.00414373,-0.0006053895,-0.0012608878,-23424.0,-32515.5,-14205.5,
21.176,-1.2311394,-0.17759377,9.809219,-0.0013458729,0.00072692332,-0.0015273513,-23424.0,-32259.5,-14973.5,
21.296,-1.2191684,-0.14407496,9.804431,-0.00014679134,-0.0016712397,0.0022031236,-24192.0,-32259.5,-13949.5,
21.414,-1.2478988,-0.17759377,9.787672,0.000119671224,0.00072692332,0.00020465534,-23168.0,-32515.5,-14717.5,
21.534,-1.21438,-0.15844018,9.749365,-0.00520958,0.0032583176,-0.0005947314,-23424.0,32508.5,-14973.5,
21.648,-1.2407162,-0.15844018,9.809219,-0.0012126416,0.0013930798,-0.003259357,-23936.0,32508.5,-13181.5,
21.771,-1.262264,-0.16322857,9.797249,-0.004276961,-0.000871852064,-0.0003282698,-23424.0,32764.5,-13693.5,
21.888,-1.1952264,-0.1895648,9.723028,-0.0057424904,0.0023256988,-0.0024599694,-23680.0,32508.5,-14205.5,
22.005,-1.202409,-0.1871706,9.794854,0.0022513718,0.0008601546,-0.000727963636,-23680.0,32764.5,-14205.5,
22.121,-1.2431104,-0.168016976,9.828373,0.0022513718,-7.246435e-05,0.0015369672,-23424.0,-32515.5,-13437.5,
22.240,-1.2694466,-0.1847764,9.842738,0.001451984,0.0040577016,-0.0021935068,-23424.0,32508.5,-14205.5,
22.361,-1.2000148,-0.17759377,9.761335,-0.0005464852,0.0024589264,0.0018034298,-23424.0,32508.5,-14973.5,
22.479,-1.2167742,-0.172805368,9.775701,-0.0014791042,-0.0004721582,-6.180722e-05,-23168.0,32764.5,-14461.5,
22.597,-1.2239568,-0.1943532,9.713451,0.0010522902,0.0012598485,0.002336355,-23424.0,32764.5,-14461.5,
22.713,-1.1880438,-0.170411168,9.751759,-0.0004132688,0.0009933859,-0.0008611949,-23424.0,-32003.5,-13949.5,
22.830,-1.3484554,-0.26139084,9.699086,-0.003344342,0.003791239,0.000337886632,-23168.0,-32515.5,-13181.5,
22.953,-1.2311394,-0.15125756,9.76373,-0.004809886,0.000460457068,0.0050009796,-23680.0,-32515.5,-14717.5,
23.070,-1.2191684,-0.1871706,9.773307,-0.00347757336,0.0029918552,-0.0020602756,-23936.0,32764.5,-13437.5,
23.187,-1.2526872,-0.16083437,9.758942,-0.0040104984,0.0036580116,-0.0008611949,-23168.0,32508.5,-13437.5,
23.304,-1.2119858,-0.16083437,9.790066,-0.0013458729,0.006589096,-0.0001950385,-23680.0,-32515.5,-13693.5,
23.421,-1.2071974,-0.21111262,9.785277,-0.00014679134,0.0024589264,-0.0001950385,-23680.0,32764.5,-14461.5,
23.545,-1.1808612,-0.14168076,9.713451,0.001451984,6.0766936e-05,-0.0001950385,-23680.0,32764.5,-14717.5,
23.661,-1.2407162,-0.1895648,9.802037,-0.00520958,0.0012598485,0.0035354364,-23680.0,32764.5,-13437.5,
23.777,-1.2287452,-0.16562277,9.76373,-0.0060089676,-0.0024706236,-0.0019270442,-23680.0,-32515.5,-13693.5,
23.894,-1.238322,-0.1895648,9.761335,-0.00347757336,-0.0014047772,0.0020698932,-23680.0,-32515.5,-14205.5,
24.017,-1.2455046,-0.22787202,9.787672,-0.0038772672,0.00019399822,-0.0025932006,-23424.0,32764.5,-14205.5,
24.135,-1.1952264,-0.19914159,9.821191,-0.0038772672,0.0011266135,0.0034022052,-23168.0,32764.5,-13181.5,
24.254,-1.178467,-0.14168076,9.790066,-0.0057424904,0.0049903208,-0.001793813,-23424.0,32764.5,-15229.5,
24.370,-1.2215626,-0.16322857,9.739788,-0.00081294776,0.0028586238,0.00073758052,-23424.0,-32515.5,-14717.5,
24.488,-1.1712844,-0.17759377,9.799643,-0.00694158636,0.0043241644,-0.0019270442,-23424.0,-32515.5,-15229.5,
24.614,-1.226351,-0.208718384,9.869075,-0.00094617908,0.004723858,-0.00046150108,-24448.0,32252.5,-14973.5,
24.731,-1.1880438,-0.16322857,9.703875,0.000785827636,0.0024589264,-0.0015273513,-24192.0,32508.5,-15997.5,
24.850,-1.2909946,-0.14646916,9.828373,-0.0016123354,-0.0089989568,0.000337886632,-23936.0,32764.5,-14717.5,
24.968,-1.1473424,-0.15365176,9.706269,-0.0068083555,0.009253722,0.00073758052,-23936.0,32508.5,-14973.5,
25.086,-1.2335336,-0.1871706,9.840344,-0.0022784918,0.0040577016,7.142406e-05,-24192.0,31740.5,-15229.5,
25.207,-1.118612,-0.14407496,9.608107,-0.00414373,0.009786647,0.00020465534,-24704.0,32508.5,-15485.5,
25.323,-1.1952264,-0.17759377,9.639232,-0.00347757336,0.01218481,0.0024695872,-24448.0,31996.5,-15229.5,
25.442,-1.2071974,-0.16322857,9.739788,-0.0037440508,0.00725525236,-0.0021935068,-24192.0,31740.5,-14205.5,
25.560,-1.250293,-0.24702564,9.677539,-0.0049431176,0.011651885,-0.0001950385,-24192.0,32764.5,-14205.5,
25.676,-1.1234004,-0.16322857,9.557828,-0.004276961,0.014982665,-0.0003282698,-23936.0,32252.5,-14205.5,
25.799,-1.1928322,-0.175199568,9.667962,-0.00347757336,0.00059369208,-0.0011276575,-23936.0,32764.5,-13949.5,
25.919,-1.1880438,-0.191959,9.787672,-0.00347757336,0.005123552,-0.0043252064,-24704.0,31484.5,-15229.5,
26.035,-1.2335336,-0.191959,9.775701,-0.00361080468,0.0043241644,-0.0020602756,-24192.0,32508.5,-14717.5,
26.152,-1.1952264,-0.191959,9.720634,-0.004276961,0.003924474,-0.0012608878,-24192.0,31228.5,-14717.5,
26.267,-1.2718408,-0.175199568,9.847527,-0.0005464852,-0.0030035526,-0.000727963636,-23936.0,31740.5,-14205.5,
26.392,-1.4011278,-0.191959,10.103706,-0.0017455816,-0.016726368,-0.0003282698,-24704.0,-32515.5,-14717.5,
26.508,-1.2191684,-0.168016976,9.696692,0.0013187528,0.0020592324,-0.0028596632,-24448.0,32508.5,-13437.5,
26.626,-1.2239568,-0.1871706,9.821191,-0.0020120292,0.0023256988,-0.0021935068,-23936.0,31740.5,-14717.5,
26.742,-1.1688902,-0.17759377,9.737393,-0.00067971648,0.009786647,-0.002726432,-24704.0,32252.5,-14461.5,
26.866,-1.1569192,-0.15844018,9.845133,0.000785827636,0.0077881776,0.0006043492,-24448.0,32508.5,-14717.5,
26.984,-1.2478988,-0.13210395,9.790066,-0.008140668,-0.00180447468,-0.0011276575,-23936.0,32252.5,-15485.5,
27.102,-1.1329772,-0.21111262,9.529098,-0.0017455816,0.016048514,-0.0020602756,-23936.0,31996.5,-13437.5,
27.220,-1.2598698,-0.237448816,9.806826,0.0050492288,0.0068555624,7.142406e-05,-24192.0,31996.5,-13949.5,
27.337,-1.2646582,-0.25420824,9.744576,0.0013187528,0.0028586238,-0.0012608878,-24448.0,31996.5,-15229.5,
27.461,-1.1928322,-0.201535792,9.773307,-0.0022784918,0.00019399822,-0.005657519,-24192.0,32508.5,-14717.5,
27.580,-1.2071974,-0.1823822,9.770912,-0.0004132688,0.0021924674,-6.180722e-05,-24448.0,32252.5,-14973.5,
27.695,-1.2359278,-0.1871706,9.780489,-0.00347757336,0.0012598485,-0.0024599694,-24192.0,32764.5,-14205.5,
27.813,-1.2167742,-0.16322857,9.816402,-0.00361080468,0.000460457068,0.00193666116,-23936.0,31740.5,-14973.5,
27.934,-1.1976206,-0.22308362,9.794854,-0.00414373,0.0024589264,-0.0021935068,-24448.0,32508.5,-14461.5,
28.057,-1.1760728,-0.15604596,9.71824,0.0003861338,0.008987259,-0.003259357,-24704.0,31996.5,-14717.5,
28.172,-1.1473424,-0.14168076,9.651202,-0.006675124,0.012717735,-0.0016605817,-24960.0,31996.5,-15997.5,
28.288,-1.2048032,-0.172805368,9.713451,-0.0013458729,0.006589096,-0.0013941191,-24448.0,31996.5,-15229.5,
28.405,-1.2335336,-0.208718384,9.766124,-0.0020120292,0.0011266135,-0.0029928944,-24960.0,31996.5,-15229.5,
28.524,-1.2287452,-0.1895648,9.804431,-0.0004132688,0.0024589264,-0.003925513,-23936.0,31740.5,-14461.5,
28.645,-1.1808612,-0.13210395,9.74697,-0.0029446482,0.0043241644,0.001004043,-24448.0,32252.5,-14717.5,
28.762,-1.2095916,-0.16322857,9.756547,-0.0049431176,0.0040577016,-0.002326738,-23936.0,32252.5,-14973.5,
28.879,-1.2455046,-0.16083437,9.773307,-0.00361080468,-0.0011383183,-0.004191975,-24192.0,31740.5,-14973.5,
28.997,-1.2000148,-0.21829522,9.74697,-0.0030778944,0.005123552,0.0012705056,-24704.0,31484.5,-14461.5,
29.113,-1.226351,-0.16562277,9.720634,-0.0045434236,0.000460457068,-0.0011276575,-23680.0,31996.5,-13949.5,
29.237,-1.2239568,-0.1847764,9.773307,-0.0025449544,0.000460457068,-0.0021935068,-23936.0,32252.5,-13181.5,
29.355,-1.2598698,-0.1847764,9.785277,-0.0017455816,-0.0006053895,0.00193666116,-23424.0,32764.5,-14205.5,
29.472,-1.2167742,-0.17759377,9.744576,-0.0038772672,-7.246435e-05,-0.001793813,-23936.0,32764.5,-15229.5,
29.590,-1.2000148,-0.19914159,9.754153,-0.004676655,0.0020592324,-0.000727963636,-23168.0,32764.5,-14973.5,
29.715,-1.2311394,-0.170411168,9.701481,-0.0020120292,0.005123552,-0.0029928944,-23424.0,32508.5,-14717.5,
29.832,-1.2071974,-0.15844018,9.814008,-0.00414373,-0.0058014056,-0.0019270442,-23680.0,-32515.5,-15229.5,
29.948,-1.1688902,-0.16083437,9.828373,-1.3560057e-05,0.0031250828,-0.00046150108,-23168.0,-32515.5,-14205.5,
30.066,-1.1569192,-0.239843016,9.59853,-0.0021452606,0.00805464,0.00047111884,-23168.0,-32003.5,-14973.5,
30.182,-1.2239568,-0.21350682,9.787672,0.00185167792,0.005123552,-0.003925513,-23168.0,-32515.5,-13693.5,
30.305,-1.2071974,-0.21590102,9.780489,0.0022513718,0.0023256988,-0.0013941191,-23680.0,-32259.5,-15485.5,
30.423,-1.262264,-0.175199568,9.76373,-0.0017455816,0.0023256988,0.0026028176,-23424.0,-32003.5,-14973.5,
30.540,-1.1808612,-0.170411168,9.751759,-0.00720804936,0.005656477,0.000337886632,-23680.0,-32259.5,-15741.5,
30.660,-1.1952264,-0.1895648,9.823585,-0.002811417,0.00179276984,0.0006043492,-23680.0,32764.5,-14973.5,
30.776,-1.2119858,-0.175199568,9.780489,0.0011855215,0.0036580116,-0.001793813,-23680.0,-32003.5,-13437.5,
30.900,-1.1952264,-0.15604596,9.727817,-0.0026781856,0.0029918552,0.00087081176,-23424.0,32508.5,-16509.5,
31.017,-1.2359278,-0.17759377,9.821191,0.0013187528,-0.0014047772,-0.0035258192,-23680.0,32508.5,-14717.5,
31.136,-1.2646582,-0.191959,9.780489,-0.00361080468,0.0057897084,0.000337886632,-23168.0,32764.5,-14973.5,
31.254,-1.226351,-0.1871706,9.732605,-0.0032111108,0.0033915452,-0.000727963636,-24192.0,32252.5,-14461.5,
31.371,-1.2239568,-0.168016976,9.770912,-0.0050763636,0.010985728,7.142406e-05,-24448.0,32252.5,-14461.5,
31.494,-1.2071974,-0.17759377,9.749365,-0.00361080468,-0.0003389269,-0.0021935068,-23936.0,31996.5,-14205.5,
31.613,-1.21438,-0.15365176,9.799643,-0.0017455816,-0.0010050833,-6.180722e-05,-24192.0,32252.5,-15741.5,
31.729,-1.2287452,-0.172805368,9.758942,-0.0014791042,0.001526311,-0.0029928944,-23680.0,32508.5,-14973.5,
31.847,-1.1808612,-0.1943532,9.842738,-0.0017455816,0.0032583176,-0.0013941191,-24192.0,32764.5,-14717.5,
31.963,-1.2191684,-0.22068942,9.802037,-0.0058757364,0.0019260049,-0.0012608878,-23680.0,32764.5,-14717.5,
32.087,-1.1976206,-0.1943532,9.713451,-0.0020120292,-0.0024706236,-0.0015273513,-23680.0,32508.5,-14461.5,
32.204,-1.1808612,-0.203929984,9.79246,-0.00933975,0.0003272295,-0.0013941191,-23424.0,32764.5,-14973.5,
32.320,-1.2215626,-0.12492134,9.766124,-0.0044102072,0.005123552,0.00047111884,-23680.0,32508.5,-14973.5,
32.437,-1.2000148,-0.21829522,9.775701,-0.0013458729,0.0020592324,-0.00046150108,-23680.0,32252.5,-14973.5,
32.566,-1.1760728,-0.15604596,9.811614,-0.0026781856,0.0021924674,-0.0019270442,-23680.0,32252.5,-14717.5,
32.684,-1.2287452,-0.24223724,9.790066,-0.004809886,0.0044573956,-6.180722e-05,-23680.0,32252.5,-14461.5,
32.800,-1.2095916,-0.179988,9.806826,-0.002411738,0.0055232496,0.001004043,-23680.0,32764.5,-15485.5,
32.914,-1.226351,-0.16322857,9.806826,-0.0030778944,-0.0011383183,-0.0005947314,-23424.0,-32003.5,-14973.5,
33.031,-1.1449482,-0.239843016,9.821191,-0.0020120292,0.0003272295,0.0006043492,-23168.0,-32515.5,-15229.5,
33.154,-1.2478988,-0.24463144,9.833161,-0.00414373,0.0023256988,-0.0036590504,-23936.0,-32515.5,-15741.5,
33.270,-1.226351,-0.168016976,9.782884,-0.00028002262,0.00019399822,-0.00046150108,-24192.0,32508.5,-15229.5,
33.388,-1.2550814,-0.172805368,9.756547,-0.0017455816,0.0036580116,-0.0005947314,-23936.0,32252.5,-14461.5,
33.506,-1.226351,-0.1847764,9.782884,-0.0005464852,0.005256787,-0.00046150108,-23680.0,32508.5,-14461.5,
33.620,-1.2119858,-0.201535792,9.775701,-0.0026781856,0.00179276984,-0.0029928944,-23680.0,32764.5,-14973.5,
33.745,-1.2407162,-0.21829522,9.828373,-0.002411738,0.001526311,0.000337886632,-23936.0,32764.5,-15229.5,
33.863,-1.2526872,-0.208718384,9.785277,0.0022513718,0.001526311,-0.0020602756,-23424.0,32252.5,-15485.5,
33.981,-1.1808612,-0.191959,9.708663,-0.00028002262,0.0043241644,-0.0012608878,-23680.0,31996.5,-14461.5,
34.098,-1.2048032,-0.168016976,9.751759,-0.002811417,0.001526311,-0.0025932006,-23424.0,32252.5,-14461.5,
34.215,-1.2119858,-0.1823822,9.739788,-0.0050763636,0.0057897084,0.00087081176,-23936.0,32252.5,-14717.5,
34.338,-1.238322,-0.22308362,9.715846,0.0022513718,0.0059229432,7.142406e-05,-23680.0,32508.5,-14205.5,
34.454,-1.1593134,-0.13210395,9.744576,-0.0057424904,0.0008601546,-0.0020602756,-23680.0,31740.5,-15229.5,
34.571,-1.1832554,-0.175199568,9.778095,-0.00081294776,0.0019260049,0.0011372734,-23680.0,-32515.5,-14461.5,
34.691,-1.1593134,-0.14886336,9.840344,-0.0032111108,0.009520184,-0.0072562936,-23424.0,32508.5,-13181.5,
34.808,-1.226351,-0.179988,9.775701,-0.001878798,0.0021924674,-0.0035258192,-23424.0,-32259.5,-14717.5,
34.929,-1.2167742,-0.235054608,9.749365,-0.0017455816,0.0031250828,-0.003259357,-23680.0,32764.5,-14461.5,
35.047,-1.238322,-0.1895648,9.780489,0.0002528876,0.00072692332,0.000337886632,-23936.0,-32515.5,-14205.5,
35.163,-1.202409,-0.191959,9.730211,-0.00520958,-0.0010050833,-6.180722e-05,-23936.0,-32515.5,-14205.5,
35.277,-1.2000148,-0.168016976,9.749365,-0.0025449544,0.0040577016,-0.0005947314,-23936.0,-32259.5,-14461.5,
35.401,-1.1880438,-0.14886336,9.782884,-0.0029446482,0.008854028,-0.0015273513,-23424.0,32252.5,-14205.5,
35.518,-1.2287452,-0.170411168,9.775701,-0.004276961,0.0040577016,-0.0012608878,-23936.0,-32259.5,-14205.5,
35.636,-1.262264,-0.14407496,9.835556,0.0005193651,0.0019260049,-0.003259357,-23936.0,32508.5,-14205.5,
35.753,-1.2215626,-0.14646916,9.785277,-0.00414373,0.0024589264,-0.0024599694,-23424.0,32508.5,-13437.5,
35.869,-1.1234004,-0.1943532,9.658385,-0.0064086468,0.014716202,-0.0009944253,-23168.0,-32259.5,-14205.5,
35.991,-1.250293,-0.201535792,9.742182,-0.0020120292,0.00059369208,-0.001793813,-23424.0,32764.5,-13437.5,
36.108,-1.2886004,-0.239843016,9.852315,0.0029175282,-0.00380293668,-6.180722e-05,-23936.0,31996.5,-14461.5,
36.227,-1.2694466,-0.1871706,9.780489,0.0031839908,0.0013930798,0.0012705056,-23680.0,-32259.5,-14205.5,
36.344,-1.2311394,-0.168016976,9.758942,-0.0060089676,-0.0022041648,-0.0003282698,-23936.0,-32515.5,-13949.5,
36.461,-1.2933888,-0.24223724,9.864286,-0.0005464852,-0.0020709336,-0.0019270442,-24192.0,32764.5,-14461.5,
36.599,-1.1856496,-0.172805368,9.799643,-0.0032111108,-0.00180447468,-0.0019270442,-23424.0,32764.5,-14717.5,
36.718,-1.2239568,-0.21590102,9.787672,-0.0005464852,0.0063226336,-6.180722e-05,-23424.0,32764.5,-14717.5,
36.835,-1.2407162,-0.1943532,9.780489,-0.004676655,0.004857093,-0.0020602756,-23424.0,-32259.5,-15485.5,
36.950,-1.2335336,-0.206324184,9.770912,-0.0017455816,0.000460457068,0.00047111884,-23424.0,32252.5,-16253.5,
37.070,-1.1952264,-0.1895648,9.785277,-0.00081294776,0.0032583176,7.142406e-05,-23680.0,32764.5,-15741.5,
37.191,-1.355638,-0.175199568,9.878652,0.0015852153,-0.0010050833,-0.0040587444,-23424.0,32252.5,-15485.5,
37.310,-1.262264,-0.19914159,9.725423,-0.0058757364,0.006189406,0.003268974,-23168.0,-32259.5,-14717.5,
37.426,-1.2550814,-0.201535792,9.835556,-0.0013458729,0.00698879,-0.0019270442,-23168.0,32508.5,-14461.5,
37.544,-1.2862062,-0.208718384,9.864286,0.001451984,-0.005534947,0.0012705056,-23424.0,32508.5,-13693.5,
37.661,-1.2119858,-0.1823822,9.754153,-0.00347757336,0.00698879,-0.0015273513,-23936.0,-32515.5,-13437.5,
37.783,-1.1952264,-0.191959,9.744576,-0.0064086468,0.0075217187,-0.0020602756,-23424.0,-32259.5,-13437.5,
37.900,-1.1593134,-0.14407496,9.768518,0.000119671224,0.0028586238,-0.0021935068,-22656.0,-32259.5,-13437.5,
38.019,-1.1832554,-0.11773874,9.691904,-0.0014791042,0.007921409,0.00087081176,-23168.0,32764.5,-13949.5,
38.136,-1.1617076,-0.16322857,9.6105,-0.004809886,0.0045906304,-6.180722e-05,-23680.0,32508.5,-14717.5,
38.257,-1.2526872,-0.172805368,9.780489,-0.0005464852,-0.000205695632,-6.180722e-05,-23168.0,-32515.5,-13437.5,
38.376,-1.1234004,-0.11295034,9.742182,-0.0010794252,0.0049903208,-0.00046150108,-22656.0,-32515.5,-13693.5,
38.493,-1.1856496,-0.168016976,9.723028,-0.00347757336,0.0036580116,0.00193666116,-23168.0,-32515.5,-14973.5,
38.613,-1.2287452,-0.12731555,9.706269,-0.00347757336,-0.0010050833,0.00047111884,-23424.0,-32259.5,-13437.5,
38.732,-1.118612,-0.235054608,9.205881,-0.016400992,0.024442082,-0.0049913632,-23424.0,-32515.5,-13437.5,
38.855,-1.238322,-0.168016976,9.775701,-0.0058757364,0.00019399822,-0.004458438,-23424.0,-32003.5,-14461.5,
38.972,-1.2119858,-0.203929984,9.775701,-0.00067971648,0.0008601546,-0.0015273513,-23168.0,-31747.5,-13181.5,
39.090,-1.2119858,-0.203929984,9.778095,0.00065259636,0.001526311,-0.00339258784,-23680.0,-32003.5,-13949.5,
39.209,-1.226351,-0.21829522,9.739788,-0.0010794252,0.0028586238,-0.0028596632,-23424.0,-31491.5,-12925.5,
39.326,-1.2359278,-0.108161928,9.790066,-0.0030778944,0.0011266135,-0.0012608878,-23424.0,-32259.5,-13949.5,
39.451,-1.1976206,-0.079431508,9.782884,-0.00028002262,0.003924474,-0.00046150108,-22912.0,-31491.5,-13949.5,
39.568,-1.2981772,-0.1943532,9.691904,-0.003344342,0.001526311,-0.0049913632,-22912.0,-32003.5,-13437.5,
39.683,-1.1952264,-0.23266042,9.785277,0.00185167792,-7.246435e-05,7.142406e-05,-23424.0,-32003.5,-13949.5,
39.800,-1.2048032,-0.12252714,9.696692,-0.00414373,0.009786647,-0.001793813,-23168.0,-32515.5,-14205.5,
39.915,-1.2646582,-0.12492134,9.756547,-0.0026781856,0.00179276984,-0.0005947314,-22656.0,-32259.5,-14205.5,
40.039,-1.5902698,-0.29969804,10.9321,0.0059818328,-0.034179656,-0.004458438,-23680.0,-32259.5,-15741.5,
40.155,-1.307754,-0.1823822,9.758942,0.001451984,0.008587565,-6.180722e-05,-23424.0,32764.5,-14717.5,
40.269,-1.1042468,-0.16562277,9.768518,-0.0029446482,0.0029918552,0.0015369672,-23168.0,-32003.5,-14461.5,
40.386,-1.2167742,-0.21350682,9.833161,-0.0022784918,0.0031250828,0.0024695872,-23424.0,-32003.5,-14973.5,
40.510,-1.2598698,-0.235054608,9.806826,0.0029175282,0.0003272295,7.142406e-05,-23168.0,-32259.5,-14717.5,
40.627,-1.274235,-0.17759377,9.821191,-0.001878798,0.0041909368,0.00087081176,-23168.0,-32259.5,-13949.5,
40.744,-1.226351,-0.201535792,9.766124,-0.0058757364,0.0057897084,-0.0031261258,-23424.0,32764.5,-15229.5,
40.862,-1.2814176,-0.25181404,9.76373,0.000919044,0.0003272295,-0.0019270442,-23168.0,-32515.5,-13437.5,
40.977,-1.2311394,-0.170411168,9.818796,-0.00028002262,-0.0020709336,-0.0028596632,-23168.0,-32259.5,-14973.5,
41.101,-1.178467,-0.14168076,9.780489,-0.0013458729,0.003924474,7.142406e-05,-23680.0,-31747.5,-15485.5,
41.217,-1.1928322,-0.15844018,9.816402,-0.0010794252,0.005256787,0.0006043492,-22912.0,-32515.5,-14205.5,
41.333,-1.1808612,-0.12731555,9.818796,-0.006142199,0.0059229432,-0.0011276575,-23680.0,32764.5,-13949.5,
41.450,-1.2670524,-0.179988,9.725423,-0.0045434236,0.0040577016,-0.0037922818,-23680.0,32508.5,-14205.5,
41.567,-1.1593134,-0.21829522,9.749365,-0.0022784918,0.0031250828,-6.180722e-05,-23168.0,-32003.5,-14461.5,
41.690,-1.1832554,-0.175199568,9.830768,-0.0037440508,0.0023256988,0.0034022052,-22656.0,-32515.5,-14717.5,
41.808,-1.1641018,-0.208718384,9.821191,-0.0025449544,0.0040577016,-0.0015273513,-22656.0,-32259.5,-14461.5,
41.927,-1.2766292,-0.21111262,9.833161,-0.0016123354,-0.0016712397,-0.00046150108,-23680.0,-32515.5,-13437.5,
42.045,-1.2287452,-0.206324184,9.814008,-0.00414373,0.005123552,-0.0016605817,-23424.0,-32515.5,-14973.5,
42.162,-1.2167742,-0.175199568,9.778095,-0.0020120292,-0.00180447468,0.0014037369,-23168.0,-32515.5,-14461.5,
42.287,-1.2862062,-0.1943532,9.797249,-0.0037440508,0.0009933859,-0.0024599694,-23936.0,-32259.5,-14717.5,
42.403,-1.1856496,-0.172805368,9.754153,-0.004276961,0.0053900144,0.000337886632,-23424.0,32764.5,-14461.5,
42.522,-1.1880438,-0.1847764,9.830768,-0.0058757364,0.0020592324,-0.0031261258,-23168.0,32764.5,-14717.5,
42.639,-1.1976206,-0.29490966,9.715846,-0.00347757336,0.0057897084,-0.002326738,-23168.0,-32515.5,-13693.5,
42.757,-1.2095916,-0.196747384,9.816402,-1.3560057e-05,0.0044573956,-0.0024599694,-22912.0,-32003.5,-13693.5,
42.881,-1.226351,-0.1895648,9.835556,0.00464952,0.0075217187,0.00286928,-22656.0,-32259.5,-13693.5,
42.996,-1.2814176,-0.22068942,9.814008,0.0015852153,0.001526311,-0.0013941191,-23424.0,-32003.5,-15485.5,
43.113,-1.2862062,0.03549017,9.701481,-0.00520958,0.008187875,-0.0025932006,-23424.0,-32003.5,-14205.5,
43.228,-1.2862062,-0.22787202,9.787672,-0.0045434236,0.00179276984,0.002336355,-23424.0,-32003.5,-14973.5,
43.352,-1.130583,-0.053095296,9.76373,-0.0050763636,0.008454334,0.000337886632,-22912.0,-32003.5,-14461.5,
43.468,-1.1449482,-0.1823822,9.797249,-0.00094617908,0.0025921612,-0.0020602756,-23168.0,-32515.5,-14717.5,
43.585,-1.3963394,-0.26857344,9.761335,-0.010005906,-0.0039361716,-0.0016605817,-22912.0,-32003.5,-14205.5,
43.702,-1.2215626,-0.110556132,9.770912,-0.002411738,-0.0010050833,0.001004043,-23424.0,-32259.5,-14717.5,
43.819,-1.238322,-0.22308362,9.742182,0.00185167792,0.00059369208,7.142406e-05,-23168.0,-32515.5,-15485.5,
43.948,-1.1808612,-0.21111262,9.794854,-0.0060089676,0.006589096,-0.002726432,-23424.0,-32515.5,-14717.5,
44.064,-1.1952264,-0.196747384,9.780489,-0.0021452606,-0.0019377023,-0.005124594,-23424.0,-32515.5,-14205.5,
44.184,-1.2311394,-0.191959,9.794854,0.00185167792,-0.0028703212,-0.002326738,-22912.0,-32259.5,-13949.5,
44.300,-1.274235,-0.14168076,9.773307,0.000919044,0.0012598485,-0.00046150108,-23424.0,-32515.5,-13437.5,
44.416,-1.2718408,-0.21590102,9.749365,-0.0021452606,0.0044573956,0.00087081176,-22912.0,-32515.5,-13437.5,
44.540,-1.21438,-0.17759377,9.806826,-0.0058757364,0.0049903208,0.0012705056,-22656.0,-32515.5,-13181.5,
44.657,-1.2167742,-0.206324184,9.696692,-0.0032111108,0.0075217187,-0.002326738,-23424.0,-32259.5,-14461.5,
44.777,-1.1952264,-0.14407496,9.761335,-0.00520958,-7.246435e-05,-0.0013941191,-22912.0,32508.5,-13949.5,
44.893,-1.2598698,-0.1871706,9.775701,-0.0068083555,0.0076549464,0.00073758052,-22912.0,-31747.5,-14205.5,
45.011,-1.1090352,-0.08182572,9.560223,-0.007607743,0.0031250828,-0.0008611949,-22912.0,-32003.5,-14461.5,
45.133,-1.226351,-0.22308362,9.6488088,-0.0032111108,0.003791239,-0.003925513,-23168.0,-31491.5,-14461.5,
45.249,-1.1856496,-0.12013294,9.701481,-0.0050763636,0.0057897084,-0.0005947314,-22656.0,-32515.5,-14461.5,
45.366,-1.1569192,-0.15125756,9.833161,0.0015852153,0.0011266135,-0.002326738,-22144.0,-32003.5,-13437.5,
45.483,-1.1736786,-0.208718384,9.797249,-0.0025449544,0.0003272295,0.000337886632,-23680.0,-32515.5,-13693.5,
45.603,-1.274235,-0.24941984,9.742182,-0.001878798,0.003924474,0.001004043,-22912.0,-32003.5,-12925.5,
45.723,-1.2526872,-0.201535792,9.852315,-0.00028002262,-0.0028703212,-0.0012608878,-23680.0,-32003.5,-14717.5,
45.842,-1.2574756,-0.21829522,9.744576,-0.00347757336,0.0021924674,-0.0019270442,-23168.0,-32003.5,-13949.5,
45.961,-1.2766292,-0.31166908,9.658385,0.0021181404,0.0011266135,-6.180722e-05,-23168.0,-31747.5,-13437.5,
46.078,-1.202409,-0.15365176,9.749365,-0.0038772672,0.0009933859,-0.0011276575,-23168.0,-31747.5,-13437.5,
46.201,-1.2455046,-0.27096764,9.713451,-0.00361080468,0.00738848368,-0.003925513,-23168.0,-32003.5,-13693.5,
46.320,-1.1856496,-0.06746051,9.739788,-0.0021452606,0.0036580116,0.003801899,-22912.0,-32259.5,-13693.5,
46.436,-1.2694466,-0.12013294,9.845133,0.000785827636,0.0011266135,0.0016701994,-23168.0,-32003.5,-13949.5,
46.555,-1.2574756,-0.206324184,9.835556,-0.0025449544,-0.0024706236,-0.0003282698,-23424.0,-32515.5,-14205.5,
46.673,-1.1281888,-0.14886336,9.620077,0.000785827636,0.008987259,-0.0009944253,-23168.0,32764.5,-13949.5,
46.796,-1.2766292,-0.16083437,9.744576,-0.0017455816,0.00059369208,-0.0008611949,-23680.0,-32259.5,-13693.5,
46.913,-1.1928322,-0.206324184,9.675144,-0.00347757336,0.0023256988,0.000337886632,-22912.0,32764.5,-14205.5,
47.033,-1.2814176,-0.15365176,9.794854,-0.006142199,0.0036580116,0.00087081176,-23168.0,32764.5,-13693.5,
47.150,-1.319725,-0.15604596,9.802037,-0.00520958,0.0020592324,0.001004043,-23168.0,-32515.5,-13949.5,
47.264,-1.2598698,-0.15844018,9.933718,0.00185167792,-0.0063343348,-0.0025932006,-22912.0,32764.5,-13437.5,
47.388,-1.1569192,-0.23266042,9.655991,-0.0045434236,0.0077881776,0.0006043492,-23424.0,-32515.5,-14461.5,
47.505,-1.5519626,-0.28533286,10.374251,0.00185167792,-0.031115346,-0.003925513,-22912.0,-32259.5,-14461.5,
47.625,-1.4298582,-0.25899664,9.95766,0.0025178344,-0.011263888,-0.0001950385,-22912.0,32764.5,-13949.5,
47.741,-1.190438,-0.30448648,9.586558,-0.0010794252,0.016314978,-0.000727963636,-23168.0,-32259.5,-14205.5,
47.859,-1.1928322,-0.21350682,9.766124,0.0003861338,0.0032583176,7.142406e-05,-22912.0,32508.5,-15229.5,
47.981,-1.2407162,-0.12970975,9.646414,-0.004676655,0.0057897084,0.0022031236,-23424.0,-32259.5,-14205.5,
48.098,-1.2790234,-0.14407496,9.730211,-0.0020120292,0.0040577016,-0.001793813,-23424.0,-32259.5,-14461.5,
48.215,-1.1449482,-0.26857344,9.773307,-0.00414373,0.0040577016,-0.002726432,-23168.0,-31747.5,-13949.5,
48.330,-1.2215626,-0.179988,9.758942,-0.007474512,0.0032583176,-6.180722e-05,-22912.0,-32515.5,-13181.5,
48.451,-1.2048032,-0.179988,9.703875,-0.007607743,0.0064558648,-0.0016605817,-23424.0,32764.5,-14205.5,
48.566,-1.2790234,-0.1895648,9.773307,-0.0021452606,0.0023256988,0.0016701994,-23680.0,31996.5,-13437.5,
48.684,-1.2095916,-0.203929984,9.787672,-0.0017455816,0.004723858,-0.0024599694,-23424.0,32508.5,-14973.5,
48.801,-1.1162178,-0.208718384,9.739788,-0.00414373,0.0025921612,-0.0019270442,-23168.0,32508.5,-13693.5,
48.919,-1.013267,-0.057883696,9.76373,-0.010672063,0.010053109,0.004734517,-23168.0,32508.5,-13693.5,
49.040,-1.2574756,-0.12970975,9.720634,-0.0060089676,0.0055232496,-0.0005947314,-22912.0,-32259.5,-13437.5,
49.157,-1.250293,-0.206324184,9.782884,0.0002528876,0.006589096,0.00047111884,-23424.0,-32259.5,-13949.5,
49.273,-1.3221192,-0.15844018,9.632049,-0.0044102072,0.009253722,0.0030025114,-23424.0,-31747.5,-13693.5,
49.390,-1.2718408,-0.196747384,9.761335,-0.003344342,0.0049903208,7.142406e-05,-23424.0,32508.5,-13437.5,
49.507,-1.250293,-0.22068942,9.725423,0.0002528876,-0.0006053895,0.0006043492,-23424.0,-32515.5,-14205.5,
49.628,-1.1736786,-0.17759377,9.773307,-0.0044102072,-0.0006053895,-0.0021935068,-22912.0,32508.5,-14717.5,
49.746,-1.1928322,-0.15844018,9.737393,-0.0004132688,0.0064558648,-0.0035258192,-23168.0,32508.5,-14205.5,
49.863,-1.2359278,-0.22547782,9.742182,-0.004676655,0.0036580116,-0.0025932006,-23424.0,32508.5,-14717.5,
49.980,-1.2191684,-0.1943532,9.727817,-0.00361080468,0.0063226336,-0.0053910568,-23680.0,-31747.5,-14717.5,
50.097,-1.2191684,-0.168016976,9.76373,-0.0017455816,0.0036580116,-0.0021935068,-23168.0,-32515.5,-15229.5,
50.220,-1.2526872,-0.27336186,9.799643,0.001451984,-0.0014047772,-0.0045916692,-23424.0,-32515.5,-14461.5,
50.337,-1.2239568,-0.25181404,9.778095,-0.004676655,0.003924474,0.0015369672,-23168.0,-32515.5,-13949.5,
50.452,-1.1712844,-0.12970975,9.751759,-0.001878798,0.0031250828,0.0012705056,-23168.0,32508.5,-14717.5,
50.570,-1.1856496,-0.1823822,9.821191,-0.00347757336,0.0035247804,-0.0001950385,-23168.0,-32003.5,-15229.5,
50.688,-1.238322,-0.175199568,9.814008,-0.00414373,0.00179276984,0.0011372734,-22656.0,32764.5,-14461.5,
50.812,-1.238322,-0.15125756,9.782884,-0.00094617908,0.0059229432,0.0016701994,-22656.0,-32515.5,-14461.5,
50.928,-1.3293018,-0.31166908,9.811614,-0.003344342,0.00072692332,-0.0005947314,-22656.0,-32259.5,-13693.5,
51.044,-1.2766292,-0.170411168,9.814008,-0.0045434236,0.000460457068,-0.0019270442,-23168.0,32764.5,-12413.5,
51.164,-1.2431104,-0.1823822,9.773307,-0.0017455816,0.0031250828,-0.00046150108,-23424.0,-32259.5,-13693.5,
51.286,-1.21438,-0.15604596,9.720634,-0.004676655,0.00072692332,-0.003259357,-22912.0,-32515.5,-13181.5,
51.401,-1.2550814,-0.14168076,9.785277,-0.00094617908,0.0044573956,0.0024695872,-22912.0,32764.5,-13181.5,
51.519,-1.142554,-0.15844018,9.914564,-0.0014791042,0.0003272295,0.0031357436,-23424.0,32508.5,-14205.5,
51.635,-1.1018526,-0.13210395,9.632049,-0.0045434236,0.006189406,7.142406e-05,-23168.0,-32515.5,-13949.5,
51.752,-1.0108728,-0.072248904,9.79246,-0.0016123354,0.0016595423,-0.0037922818,-23168.0,32764.5,-13949.5,
51.876,-1.178467,-0.191959,9.794854,-0.0053428112,0.0032583176,0.004734517,-23424.0,-32515.5,-14717.5,
51.991,-1.2359278,-0.16083437,9.756547,-0.00720804936,0.0024589264,-0.005657519,-23168.0,-32515.5,-13693.5,
52.109,-1.2335336,-0.203929984,9.785277,-0.0029446482,0.0019260049,0.00020465534,-23168.0,-32515.5,-14205.5,
52.230,-1.2167742,-0.13689235,9.727817,0.00065259636,6.0766936e-05,-0.0049913632,-22912.0,32252.5,-14461.5,
52.348,-1.2694466,-0.1871706,9.586558,-0.007074803,0.0075217187,-0.0052578252,-23424.0,32764.5,-13181.5,
52.471,-1.2119858,-0.16322857,9.744576,-0.0062754304,0.0019260049,-0.0021935068,-22912.0,32508.5,-14205.5,
52.590,-1.2191684,-0.15125756,9.754153,-0.006142199,0.0035247804,-0.0012608878,-22912.0,32764.5,-13949.5,
52.708,-1.1641018,-0.11534454,9.811614,0.000919044,0.006189406,0.0018034298,-22656.0,32764.5,-13949.5,
52.824,-1.1832554,-0.16562277,9.720634,-0.0038772672,0.0029918552,0.0006043492,-23168.0,-32259.5,-14717.5,
52.941,-1.1808612,-0.14168076,9.706269,-0.003344342,0.0029918552,-0.0009944253,-22656.0,32764.5,-13949.5,
53.063,-1.1952264,-0.14886336,9.811614,-0.0017455816,0.0031250828,0.00047111884,-22656.0,32252.5,-14973.5,
53.180,-1.2933888,-0.25899664,9.622472,-0.00520958,0.0057897084,-0.003925513,-23168.0,-32515.5,-14461.5,
53.295,-1.2886004,-0.237448816,9.814008,-0.0037440508,0.00059369208,-0.0012608878,-23424.0,32252.5,-14205.5,
53.414,-1.2071974,-0.1871706,9.679933,-0.0004132688,0.0003272295,0.0030025114,-23424.0,31740.5,-14205.5,
53.530,-1.2407162,-0.12492134,9.732605,-0.007607743,0.003924474,0.0006043492,-24192.0,31740.5,-14461.5,
53.651,-1.2407162,-0.168016976,9.739788,0.001451984,0.0013930798,0.00073758052,-23168.0,31740.5,-14205.5,
53.769,-1.1760728,-0.14646916,9.713451,0.0005193651,-0.0020709336,-0.0011276575,-23424.0,32252.5,-13949.5,
53.886,-1.2407162,-0.22308362,9.828373,-0.0044102072,-0.004602328,-6.180722e-05,-22912.0,31996.5,-15229.5,
54.003,-1.2048032,-0.21111262,9.706269,-0.006675124,0.0045906304,-0.0028596632,-23168.0,31996.5,-15485.5,
54.119,-1.2167742,-0.19914159,9.720634,-0.0025449544,0.0036580116,-0.002326738,-22912.0,31996.5,-14461.5,
54.243,-1.250293,-0.196747384,9.828373,-0.0004132688,-0.0011383183,-0.002726432,-23680.0,31996.5,-13693.5,
54.360,-1.2359278,-0.168016976,9.720634,-0.007074803,0.0013930798,-0.0011276575,-22912.0,31484.5,-14717.5,
54.478,-1.1138236,-0.206324184,9.593741,-0.00347757336,0.014716202,0.00087081176,-23168.0,31484.5,-15229.5,
54.598,-1.1952264,-0.15604596,9.799643,-0.0012126416,-0.00313678,-0.0001950385,-23168.0,31484.5,-14717.5,
54.719,-1.2550814,-0.27096764,9.919353,0.007180929,-0.0059346408,0.00193666116,-22912.0,31740.5,-14205.5,
54.837,-1.1042468,-0.196747384,9.579376,-0.0050763636,0.015115896,-0.005923982,-22912.0,31740.5,-14717.5,
54.954,-1.2407162,-0.206324184,9.766124,0.000119671224,-0.0010050833,0.0020698932,-22656.0,31996.5,-14461.5,
55.074,-1.2239568,-0.21111262,9.770912,-0.005609274,0.0016595423,0.00020465534,-22912.0,31740.5,-14717.5,
55.191,-1.238322,-0.206324184,9.703875,0.0002528876,0.000460457068,-0.0008611949,-22912.0,32252.5,-15229.5,
55.315,-1.1880438,-0.175199568,9.699086,-0.007607743,0.0036580116,-0.0015273513,-22656.0,31740.5,-15997.5,
55.439,-1.2550814,-0.21590102,9.861892,0.004782766,0.0003272295,-0.0012608878,-22400.0,32252.5,-15229.5,
55.555,-1.1856496,-0.17759377,9.706269,-0.002411738,-0.0003389269,-0.0013941191,-22656.0,32508.5,-15485.5,
55.673,-1.1760728,-0.16562277,9.804431,-0.0020120292,0.005123552,-0.003259357,-22400.0,32508.5,-15229.5,
55.789,-1.2311394,-0.170411168,9.684721,-0.0005464852,0.0020592324,-0.0009944253,-21888.0,32252.5,-14973.5,
55.912,-1.1808612,-0.14646916,9.768518,-0.0045434236,0.004723858,0.00020465534,-22144.0,32508.5,-15485.5,
56.029,-1.2766292,-0.175199568,9.696692,-0.0016123354,0.006189406,0.0006043492,-21888.0,32252.5,-15741.5,
56.146,-1.1497366,-0.203929984,9.660779,-0.008140668,0.0035247804,0.004334824,-21888.0,32508.5,-14717.5,
56.265,-1.2071974,-0.206324184,9.723028,-0.0014791042,-0.0014047772,-0.0015273513,-21376.0,32252.5,-14973.5,
56.384,-1.274235,-0.24941984,9.773307,-0.001878798,0.0041909368,-0.000727963636,-22144.0,32252.5,-15485.5,
56.507,-1.2095916,-0.10337353,9.694298,-0.004276961,0.0041909368,-0.0021935068,-22144.0,32508.5,-14205.5,
56.623,-1.2526872,-0.16562277,9.86668,-0.001878798,0.0008601546,-0.0003282698,-21888.0,32252.5,-13949.5,
56.738,-1.2119858,-0.172805368,9.725423,-0.001878798,0.0041909368,-0.0003282698,-21632.0,32252.5,-14973.5,
56.855,-1.2071974,-0.179988,9.744576,-0.0005464852,0.004723858,0.0014037369,-21632.0,32252.5,-14461.5,
56.970,-1.2215626,-0.196747384,9.727817,-0.0012126416,0.004857093,-0.00339258784,-21120.0,32764.5,-15229.5,
57.095,-1.2909946,-0.28533286,9.828373,-0.0012126416,0.000460457068,-0.0043252064,-22400.0,32508.5,-15229.5,
57.214,-1.118612,-0.079431508,9.689509,-0.011071742,0.0029918552,-0.0003282698,-22400.0,32764.5,-16253.5,
57.330,-1.274235,-0.14407496,9.775701,-0.0021452606,0.0019260049,-0.0029928944,-21632.0,-32515.5,-15741.5,
57.448,-1.2478988,-0.1943532,9.864286,-0.0013458729,-0.00180447468,0.0031357436,-22656.0,32764.5,-16253.5,
57.571,-1.2167742,-0.1823822,9.830768,-0.002411738,0.0031250828,-0.0012608878,-21888.0,32508.5,-15741.5,
57.688,-1.0898816,-0.10337353,9.787672,-0.0021452606,-0.0015380084,0.0027360496,-22656.0,32764.5,-16509.5,
57.805,-1.2694466,-0.25181404,9.79246,-0.00094617908,0.0024589264,-0.0020602756,-21632.0,32764.5,-14461.5,
57.922,-1.1928322,-0.21590102,9.758942,0.000919044,-0.0014047772,-0.0005947314,-22400.0,32252.5,-16253.5,
58.038,-1.2359278,-0.16322857,9.785277,-0.00067971648,-0.0004721582,0.001004043,-21632.0,-32515.5,-15485.5,
58.161,-1.1976206,-0.09619093,9.766124,-0.003344342,0.009386953,-0.0020602756,-21632.0,32508.5,-15485.5,
58.276,-1.21438,-0.22308362,9.756547,0.0015852153,0.010985728,-0.006190444,-21632.0,-32515.5,-14461.5,
58.392,-1.202409,-0.170411168,9.816402,-0.002411738,-0.003669709,0.00020465534,-22144.0,32508.5,-15741.5,
58.509,-1.2455046,-0.1871706,9.794854,-0.004809886,-0.0004721582,0.0012705056,-21632.0,32508.5,-15485.5,
58.624,-1.3508496,-0.24702564,9.878652,-0.0058757364,0.0067223272,7.142406e-05,-22144.0,-32515.5,-15485.5,
58.747,-1.0348148,-0.08182572,9.818796,-0.00014679134,-0.0019377023,-0.002726432,-21888.0,32252.5,-15485.5,
58.864,-1.2526872,-0.206324184,9.658385,-0.006541893,0.001526311,-0.0049913632,-22144.0,32764.5,-14205.5,
58.981,-1.178467,-0.191959,9.715846,-0.0013458729,-0.0003389269,-0.001793813,-21888.0,32508.5,-15229.5,
59.095,-1.2095916,-0.22787202,9.806826,-0.0058757364,0.00019399822,-0.0028596632,-22144.0,32508.5,-15485.5,
59.212,-1.1952264,-0.048306884,9.737393,-0.002411738,0.006189406,0.001004043,-21888.0,32508.5,-15485.5,
59.332,-1.250293,-0.196747384,9.756547,-0.0025449544,-0.0016712397,-0.000727963636,-21376.0,32508.5,-15229.5,
59.451,-1.238322,-0.14886336,9.758942,0.001451984,0.001526311,-0.0035258192,-21376.0,32252.5,-15485.5,
59.566,-1.2455046,-0.206324184,9.775701,-0.002411738,0.0044573956,-0.004458438,-21888.0,32764.5,-15485.5,
59.683,-1.2814176,-0.16322857,9.749365,-0.00694158636,-0.0010050833,-0.0013941191,-22400.0,32764.5,-14717.5,
59.802,-1.2048032,-0.21350682,9.770912,-0.00361080468,0.00072692332,-0.0024599694,-21632.0,32508.5,-14717.5,
59.927,-1.1641018,-0.175199568,9.699086,0.000919044,0.0044573956,-0.0037922818,-21888.0,31996.5,-15997.5,
60.046,-1.226351,-0.191959,9.766124,-0.0030778944,0.0040577016,0.00073758052,-22400.0,31996.5,-14973.5,
60.161,-1.2407162,-0.179988,9.768518,-1.3560057e-05,-0.0011383183,-0.00046150108,-21888.0,32764.5,-14973.5,
60.278,-1.2311394,-0.1895648,9.787672,-0.0005464852,6.0766936e-05,-6.180722e-05,-21632.0,32764.5,-15997.5,
60.400,-1.1760728,-0.16562277,9.773307,-0.0016123354,0.005123552,-0.0020602756,-21888.0,31996.5,-14717.5,
60.517,-1.226351,-0.191959,9.799643,0.000119671224,0.0016595423,-0.0015273513,-21888.0,32508.5,-14973.5,
60.634,-1.2359278,-0.15604596,9.758942,-0.004809886,0.0019260049,7.142406e-05,-21888.0,31228.5,-15741.5,
60.751,-1.2694466,-0.15125756,9.799643,-0.0005464852,0.00059369208,-0.005524288,-21376.0,32252.5,-15229.5,
60.868,-1.2598698,-0.168016976,9.773307,-0.0026781856,0.0029918552,0.00366866784,-21888.0,31740.5,-14461.5,
60.994,-1.2215626,-0.208718384,9.730211,-0.0060089676,0.005123552,0.0018034298,-22144.0,31484.5,-15485.5,
61.112,-1.2455046,-0.170411168,9.778095,0.0015852153,0.0008601546,-0.0005947314,-21888.0,31484.5,-14717.5,
61.229,-1.2000148,-0.15125756,9.754153,-0.003344342,0.0020592324,-0.0013941191,-21888.0,31484.5,-14461.5,
61.346,-1.2359278,-0.19914159,9.758942,0.004249841,0.0059229432,7.142406e-05,-22144.0,31228.5,-14973.5,
61.464,-1.2119858,-0.203929984,9.742182,0.0005193651,0.0035247804,-0.0009944253,-22144.0,30972.5,-15485.5,
61.589,-1.2191684,-0.1895648,9.766124,-0.0004132688,0.00059369208,0.0014037369,-21632.0,31228.5,-14717.5,
61.705,-1.2048032,-0.1847764,9.761335,-0.004676655,0.0036580116,-0.0035258192,-21888.0,31740.5,-15485.5,
61.821,-1.2455046,-0.237448816,9.787672,-0.008806825,-0.0032700152,-0.00046150108,-22144.0,31228.5,-14717.5,
61.939,-1.2215626,-0.179988,9.723028,-0.005609274,0.009919878,-0.0024599694,-21376.0,31484.5,-16509.5,
62.053,-1.2407162,-0.23026622,9.833161,0.000785827636,0.000460457068,-0.0021935068,-21376.0,31484.5,-14973.5,
62.179,-1.2215626,-0.15125756,9.761335,-0.0038772672,0.0009933859,-0.002726432,-21632.0,30972.5,-15997.5,
62.295,-1.2215626,-0.1943532,9.790066,-0.0029446482,0.0040577016,0.0016701994,-21632.0,31740.5,-15485.5,
62.412,-1.2119858,-0.23026622,9.732605,-0.0030778944,0.0012598485,-0.0016605817,-21632.0,31228.5,-14205.5,
62.530,-1.2311394,-0.179988,9.773307,-0.0030778944,0.003924474,-0.0024599694,-21632.0,30716.5,-14973.5,
62.645,-1.226351,-0.15844018,9.780489,-0.0016123354,0.00179276984,0.0018034298,-21120.0,30460.5,-15741.5,
62.769,-1.21438,-0.1823822,9.689509,-0.0029446482,0.0031250828,0.0027360496,-21120.0,30716.5,-14973.5,
62.885,-1.2335336,-0.23266042,9.744576,-0.00520958,0.0028586238,0.0026028176,-20864.0,30716.5,-14717.5,
63.001,-1.2167742,-0.16562277,9.727817,-0.0029446482,0.0013930798,-0.0021935068,-21120.0,30972.5,-14205.5,
63.119,-1.1856496,-0.21590102,9.730211,-0.004276961,0.00725525236,-0.001793813,-21120.0,31228.5,-15229.5,
63.237,-1.2478988,-0.168016976,9.821191,-0.004809886,-0.0004721582,0.0016701994,-20864.0,30716.5,-14717.5,
63.360,-1.2215626,-0.175199568,9.703875,-0.0073412808,0.0029918552,-0.0035258192,-21376.0,31484.5,-14717.5,
63.478,-1.2598698,-0.1847764,9.778095,-0.0062754304,0.0020592324,7.142406e-05,-21376.0,30972.5,-14973.5,
63.594,-1.2215626,-0.11295034,9.780489,0.00065259636,0.0063226336,-0.003259357,-21376.0,30972.5,-15741.5,
63.712,-1.238322,-0.208718384,9.727817,-0.0030778944,0.0019260049,0.0030025114,-20608.0,30972.5,-14717.5,
63.837,-1.1832554,-0.191959,9.706269,-0.0038772672,0.0033915452,-0.0001950385,-20864.0,31484.5,-15485.5,
63.953,-1.1808612,-0.172805368,9.74697,-0.00361080468,0.0003272295,-0.003925513,-21376.0,30972.5,-15229.5,
64.071,-1.202409,-0.19914159,9.708663,-0.001878798,0.0012598485,0.0006043492,-20864.0,30972.5,-14205.5,
64.188,-1.2071974,-0.168016976,9.761335,-0.0012126416,0.0044573956,0.000337886632,-20864.0,30716.5,-14973.5,
64.308,-1.250293,-0.206324184,9.799643,-0.0021452606,0.0027253888,-0.002326738,-21632.0,31740.5,-14461.5,
64.432,-1.1832554,-0.13210395,9.687116,-0.00014679134,0.0023256988,-0.0003282698,-20864.0,31484.5,-14461.5,
64.549,-1.2048032,-0.175199568,9.744576,0.002384603,0.0020592324,-0.000727963636,-21120.0,30972.5,-15229.5,
64.668,-1.21438,-0.1823822,9.756547,-0.0038772672,0.0008601546,-0.0020602756,-20608.0,30972.5,-14717.5,
64.782,-1.2095916,-0.196747384,9.814008,-0.001878798,0.0023256988,-0.0013941191,-21376.0,30716.5,-14461.5,
64.900,-1.1928322,-0.208718384,9.818796,-0.0026781856,0.0031250828,0.001004043,-20864.0,30972.5,-13437.5,
65.024,-1.250293,-0.175199568,9.706269,-0.0026781856,-0.0006053895,-0.0005947314,-21376.0,31228.5,-14973.5,
65.140,-1.2407162,-0.1871706,9.732605,-0.00361080468,0.0020592324,0.00073758052,-21632.0,30460.5,-14973.5,
65.257,-1.1617076,-0.11773874,9.713451,-0.004809886,0.0029918552,-0.0024599694,-20608.0,31228.5,-15741.5,
65.374,-1.2071974,-0.1943532,9.725423,-0.00067971648,0.0032583176,0.00087081176,-21120.0,30972.5,-14205.5,
65.491,-1.2095916,-0.15604596,9.782884,-0.00414373,0.0033915452,-0.005124594,-20864.0,30716.5,-13949.5,
65.611,-1.2287452,-0.15604596,9.830768,0.0011855215,0.007122021,-0.002326738,-20608.0,31228.5,-14205.5,
65.727,-1.1832554,-0.13928655,9.768518,-0.0014791042,0.0040577016,-0.0013941191,-21632.0,31228.5,-14205.5,
65.845,-1.2191684,-0.1823822,9.730211,-0.0058757364,0.008854028,-0.005124594,-21120.0,31484.5,-14205.5,
65.960,-1.2359278,-0.22547782,9.833161,0.00065259636,0.0008601546,0.0014037369,-21120.0,31740.5,-14717.5,
66.077,-1.2191684,-0.16562277,9.76373,-0.0030778944,-0.0016712397,-0.0009944253,-20864.0,31740.5,-14717.5,
66.199,-1.178467,-0.19914159,9.818796,-0.0045434236,0.0043241644,0.000337886632,-20608.0,30716.5,-13949.5,
66.318,-1.2455046,-0.21590102,9.768518,-0.0044102072,0.00072692332,-0.0013941191,-20864.0,30972.5,-14461.5,
66.436,-1.2646582,-0.201535792,9.730211,-0.004276961,0.000460457068,-0.0020602756,-21120.0,31484.5,-15485.5,
66.555,-1.2191684,-0.21350682,9.766124,-0.00694158636,0.0076549464,0.00193666116,-21632.0,30972.5,-15229.5,
66.686,-1.2598698,-0.208718384,9.816402,0.0010522902,0.0075217187,-0.0011276575,-21376.0,30460.5,-14461.5,
66.807,-1.2838118,-0.22547782,9.804431,-0.0012126416,0.006189406,-6.180722e-05,-20864.0,30716.5,-14205.5,
66.923,-1.2000148,-0.206324184,9.782884,-0.003344342,0.00072692332,-0.0008611949,-21120.0,31740.5,-14205.5,
67.040,-1.2455046,-0.24223724,9.76373,-0.00028002262,-0.003669709,-0.0040587444,-21120.0,30972.5,-15229.5,
67.156,-1.2287452,-0.175199568,9.790066,-0.0022784918,6.0766936e-05,0.0031357436,-20608.0,30972.5,-14973.5,
67.280,-1.1856496,-0.175199568,9.735,0.001451984,-0.00273709,0.0016701994,-21120.0,31228.5,-14461.5,
67.395,-1.2574756,-0.16322857,9.770912,0.000119671224,-0.0004721582,0.00087081176,-20864.0,30716.5,-14205.5,
67.513,-1.262264,-0.170411168,9.754153,-0.0010794252,0.0023256988,-0.002726432,-20864.0,31228.5,-14205.5,
67.630,-1.1928322,-0.16562277,9.770912,-0.0025449544,0.0075217187,-0.0001950385,-20864.0,30716.5,-14461.5,
67.748,-1.1856496,-0.1895648,9.790066,-0.004676655,0.004723858,0.0014037369,-20864.0,30972.5,-14461.5,
67.869,-1.1736786,-0.1871706,9.766124,-0.003344342,-0.0006053895,-0.0001950385,-20864.0,31484.5,-14205.5,
67.984,-1.2215626,-0.203929984,9.787672,0.0019849092,0.0032583176,-0.0045916692,-20864.0,31228.5,-14205.5,
68.102,-1.2574756,-0.15844018,9.735,0.0027842968,0.00019399822,7.142406e-05,-20608.0,31484.5,-14717.5,
68.218,-1.2670524,-0.16322857,9.797249,-0.00720804936,0.001526311,0.00047111884,-20864.0,31228.5,-15485.5,
68.335,-1.1976206,-0.16322857,9.814008,-0.004809886,0.0021924674,-0.0009944253,-20608.0,30972.5,-15997.5,
68.457,-1.2191684,-0.1943532,9.744576,-0.001878798,0.0020592324,-0.001793813,-20608.0,30716.5,-15229.5,
68.572,-1.226351,-0.21111262,9.735,-0.004276961,-0.00180447468,-0.0024599694,-20864.0,30716.5,-15997.5,
68.689,-1.2335336,-0.15844018,9.825979,-0.0044102072,-0.0035364776,-6.180722e-05,-20864.0,30716.5,-14205.5,
68.806,-1.226351,-0.1847764,9.703875,0.0025178344,0.0019260049,0.001004043,-21376.0,30972.5,-15485.5,
68.923,-1.2335336,-0.21829522,9.74697,-0.00347757336,0.0033915452,0.00193666116,-21120.0,30460.5,-15229.5,
69.048,-1.2239568,-0.17759377,9.773307,-0.00028002262,0.0023256988,-0.000727963636,-21376.0,30716.5,-15229.5,
69.168,-1.1856496,-0.1847764,9.754153,-0.00067971648,0.0029918552,-0.0008611949,-20352.0,30972.5,-16765.5,
69.284,-1.2000148,-0.15125756,9.74697,-0.0010794252,-0.000871852064,-0.0015273513,-21120.0,30972.5,-14717.5,
69.402,-1.1952264,-0.15604596,9.735,-0.0044102072,0.00179276984,-0.0005947314,-21376.0,29948.5,-14973.5,
69.519,-1.1952264,-0.1847764,9.701481,-0.00014679134,-7.246435e-05,-0.0040587444,-20864.0,30972.5,-14461.5,
69.642,-1.166496,-0.22068942,9.727817,-0.0040104984,0.008454334,-0.0013941191,-20608.0,30972.5,-14717.5,
69.758,-1.1760728,-0.168016976,9.711058,-0.002811417,0.0053900144,0.001004043,-21376.0,30460.5,-16253.5,
69.875,-1.1449482,-0.13928655,9.658385,-0.0040104984,0.00059369208,0.0018034298,-20608.0,30716.5,-15485.5,
69.993,-1.1856496,-0.13689235,9.713451,-0.0022784918,0.003924474,0.001004043,-20608.0,30716.5,-16253.5,
70.115,-1.21438,-0.16083437,9.71824,-0.0045434236,0.00059369208,-0.0016605817,-21120.0,30972.5,-15229.5,
70.231,-1.2478988,-0.19914159,9.806826,-0.00414373,0.0036580116,-0.00046150108,-20864.0,30972.5,-15229.5,
70.348,-1.202409,-0.11534454,9.749365,-0.0020120292,0.0049903208,-0.0025932006,-20864.0,30460.5,-15741.5,
70.465,-1.2550814,-0.1871706,9.76373,-0.0029446482,-0.0023373962,0.000337886632,-21376.0,30716.5,-15229.5,
70.583,-1.1880438,-0.16083437,9.749365,-0.0037440508,0.0019260049,-0.0019270442,-21376.0,30204.5,-16253.5,
70.708,-1.2167742,-0.19914159,9.761335,-0.00414373,0.0027253888,-0.00339258784,-21120.0,30716.5,-15229.5,
70.827,-1.2191684,-0.21829522,9.76373,0.00185167792,0.004857093,0.00087081176,-20608.0,30716.5,-15229.5,
70.945,-1.2359278,-0.196747384,9.76373,-0.00094617908,0.0009933859,-0.0028596632,-20864.0,31228.5,-14973.5,
71.062,-1.2670524,-0.19914159,9.770912,-1.3560057e-05,0.0011266135,0.00087081176,-20608.0,30204.5,-15741.5,
71.182,-1.1641018,-0.203929984,9.79246,0.0013187528,0.004723858,-0.0011276575,-21120.0,30204.5,-16509.5,
71.305,-1.2215626,-0.11295034,9.735,-0.0017455816,0.00019399822,-0.0001950385,-20608.0,30716.5,-14461.5,
71.422,-1.274235,-0.08900832,9.782884,-0.0010794252,0.004857093,0.0006043492,-20864.0,30204.5,-15741.5,
71.536,-1.0300264,0.12646984,9.888228,0.0005193651,-0.0048687904,-0.0012608878,-20864.0,30716.5,-15229.5,
71.653,-1.2694466,-0.19914159,9.751759,-0.0021452606,0.0045906304,-0.0043252064,-20864.0,30460.5,-14717.5,
71.772,-1.2598698,-0.23266042,9.761335,-0.0038772672,0.0029918552,0.0014037369,-21120.0,29948.5,-15229.5,
71.896,-1.3149366,-0.16562277,9.71824,-0.0025449544,0.00019399822,-0.0029928944,-20608.0,30716.5,-14973.5,
72.014,-1.202409,-0.179988,9.768518,-0.0022784918,0.0057897084,-0.0001950385,-20864.0,30716.5,-15997.5,
72.129,-1.226351,-0.14168076,9.806826,-0.0050763636,-0.0004721582,-0.0036590504,-21120.0,30716.5,-15997.5,
72.245,-1.190438,-0.14646916,9.775701,0.001451984,-0.0004721582,-0.0025932006,-21376.0,30460.5,-15741.5,
72.360,-1.1928322,-0.14407496,9.74697,-0.0029446482,0.0027253888,0.0012705056,-20864.0,30972.5,-15997.5,
72.483,-1.2191684,-0.16083437,9.751759,-0.0025449544,0.0057897084,-0.0028596632,-21120.0,30972.5,-15485.5,
72.600,-1.2071974,-0.21590102,9.751759,-0.004676655,0.004723858,-0.0020602756,-20608.0,31228.5,-15485.5,
72.716,-1.238322,-0.15125756,9.701481,-0.0037440508,0.0077881776,0.0031357436,-20352.0,30972.5,-15229.5,
72.833,-1.2526872,-0.21111262,9.749365,-0.0057424904,0.0011266135,-0.0028596632,-21120.0,30460.5,-15997.5,
72.950,-1.2478988,-0.1847764,9.751759,-0.0016123354,0.0024589264,0.00047111884,-21376.0,30460.5,-16253.5,
73.110,-1.2335336,-0.13689235,9.780489,-0.0012126416,0.0027253888,-0.000727963636,-20864.0,30972.5,-14461.5,
73.229,-1.1688902,-0.16322857,9.742182,-0.0054760424,0.0035247804,-0.0012608878,-20608.0,31228.5,-15741.5,
73.349,-1.1952264,-0.168016976,9.739788,-0.00081294776,0.0021924674,-0.0008611949,-20352.0,30972.5,-15229.5,
73.467,-1.2095916,-0.1871706,9.790066,0.000919044,0.0016595423,-0.0028596632,-20352.0,30972.5,-14717.5,
73.588,-1.2359278,-0.179988,9.735,-0.0025449544,0.00019399822,-0.003259357,-20864.0,31228.5,-13949.5,
73.704,-1.2478988,-0.17759377,9.799643,-0.00361080468,0.0013930798,-0.0003282698,-21120.0,30972.5,-14205.5,
73.823,-1.1617076,-0.1895648,9.780489,-0.005609274,0.0043241644,0.001004043,-21376.0,30716.5,-14205.5,
73.938,-1.2191684,-0.168016976,9.742182,-0.0029446482,0.0044573956,0.0022031236,-20608.0,31228.5,-15485.5,
74.057,-1.3029656,-0.22308362,9.703875,-0.00028002262,0.004857093,0.0006043492,-20608.0,31484.5,-15229.5,
74.180,-1.1928322,-0.179988,9.703875,0.001451984,0.003924474,0.000337886632,-20864.0,31740.5,-14717.5,
74.295,-1.2335336,-0.239843016,9.749365,-0.003344342,0.00179276984,-0.002326738,-21120.0,31228.5,-15741.5,
74.413,-1.262264,-0.22787202,9.732605,-0.0026781856,0.0044573956,0.00087081176,-20864.0,31484.5,-14461.5,
74.530,-1.118612,-0.002817057,9.804431,0.000785827636,-0.0014047772,0.001004043,-20352.0,31484.5,-14205.5,
74.646,-1.178467,-0.17759377,9.778095,-0.00361080468,0.0016595423,0.00047111884,-20608.0,31228.5,-14205.5,
74.771,-1.1808612,-0.179988,9.749365,-0.00347757336,0.004723858,-6.180722e-05,-20096.0,31228.5,-14461.5,
74.887,-1.2239568,-0.19914159,9.713451,-0.0010794252,0.0040577016,-0.0016605817,-20352.0,31484.5,-14461.5,
75.006,-1.1808612,-0.179988,9.782884,-0.0012126416,0.0029918552,0.0011372734,-20864.0,31484.5,-14717.5,
75.122,-1.1377656,-0.14886336,9.766124,-0.002411738,0.00725525236,-0.0025932006,-20096.0,31228.5,-14717.5,
75.239,-1.1090352,-0.026759074,9.799643,-0.0012126416,0.0105860344,-0.0013941191,-20608.0,30972.5,-14461.5,
75.364,-1.2933888,-0.22068942,9.699086,-0.00081294776,0.00072692332,-0.0029928944,-21376.0,30972.5,-15485.5,
75.481,-1.250293,-0.1823822,9.691904,0.0027842968,0.003791239,0.00193666116,-20352.0,30460.5,-15485.5,
75.597,-1.1856496,-0.12013294,9.76373,0.000119671224,-0.0004721582,0.00193666116,-20608.0,30716.5,-14717.5,
75.716,-1.2526872,-0.16562277,9.732605,-0.0026781856,0.0009933859,0.00047111884,-20352.0,30204.5,-15229.5,
75.833,-1.2886004,-0.17759377,9.758942,-0.0014791042,0.000460457068,-0.0005947314,-20352.0,30716.5,-15229.5,
75.958,-1.2048032,-0.19914159,9.758942,0.0017184466,0.0040577016,0.0031357436,-20608.0,30972.5,-14973.5,
76.077,-1.2287452,-0.1823822,9.766124,-0.0044102072,-0.0011383183,-0.0019270442,-20608.0,31228.5,-15485.5,
76.194,-1.2191684,-0.17759377,9.758942,-0.0021452606,0.0029918552,-0.0021935068,-20864.0,30460.5,-15485.5,
76.312,-1.2215626,-0.15125756,9.727817,-0.0032111108,0.00059369208,-0.0036590504,-20864.0,30716.5,-14973.5,
76.435,-1.2239568,-0.175199568,9.770912,-0.004676655,-0.00273709,-0.0029928944,-20864.0,30204.5,-14717.5,
76.551,-1.238322,-0.1847764,9.775701,-0.0021452606,-0.0003389269,0.0031357436,-20864.0,30204.5,-15229.5,
76.672,-1.2215626,-0.1871706,9.727817,-0.0045434236,0.0008601546,-0.002726432,-20096.0,30204.5,-13949.5,
76.788,-1.2407162,-0.170411168,9.749365,-0.0022784918,0.0019260049,-0.0021935068,-20096.0,30460.5,-15997.5,
76.908,-1.2359278,-0.17759377,9.742182,-0.0053428112,0.0032583176,-0.0015273513,-20352.0,30204.5,-15229.5,
77.033,-1.0084786,0.030701768,9.797249,-0.0032111108,0.0044573956,0.0012705056,-20096.0,30716.5,-15485.5,
77.150,-1.1976206,-0.1871706,9.778095,-0.0021452606,0.0041909368,-0.0047249004,-19328.0,30204.5,-14461.5,
77.267,-1.2455046,-0.170411168,9.794854,-0.0029446482,0.00019399822,-0.001793813,-20096.0,29436.5,-15485.5,
77.385,-1.2407162,-0.191959,9.861892,-0.0057424904,0.00019399822,-0.0012608878,-19584.0,28668.5,-15229.5,
77.502,-1.2215626,-0.17759377,9.76373,-0.0029446482,-0.0003389269,-0.0008611949,-19328.0,28412.5,-15229.5,
77.625,-1.2718408,-0.191959,9.703875,-0.0004132688,-0.0020709336,-0.0001950385,-19584.0,28412.5,-14973.5,
77.740,-1.2119858,-0.175199568,9.493185,-0.004809886,0.013117429,-0.0003282698,-19328.0,28668.5,-16253.5,
77.857,-1.2215626,-0.13449815,9.79246,0.0003861338,0.0012598485,-0.0036590504,-19584.0,27900.5,-15485.5,
77.974,-1.1281888,-0.239843016,9.790066,-0.0010794252,0.005256787,-0.0016605817,-19840.0,28156.5,-15741.5,
78.092,-1.2119858,-0.13689235,9.675144,-0.005609274,0.0064558648,-0.0024599694,-19584.0,28156.5,-16253.5,
78.215,-1.2215626,-0.1871706,9.833161,-0.00081294776,0.0027253888,-0.002326738,-19328.0,28156.5,-16253.5,
78.331,-1.1617076,-0.060277896,9.847527,0.000785827636,-0.0062011032,0.0026028176,-19840.0,27644.5,-15229.5,
78.449,-1.190438,-0.16083437,9.737393,-0.007607743,0.0040577016,-0.0025932006,-20096.0,28156.5,-15741.5,
78.566,-1.262264,-0.26139084,9.725423,-0.0050763636,0.0012598485,0.0054006736,-20352.0,28156.5,-15741.5,
78.683,-1.178467,-0.1895648,9.76373,-0.0012126416,0.0027253888,-0.0021935068,-19840.0,28668.5,-15741.5,
78.804,-1.2646582,-0.17759377,9.785277,-0.0044102072,0.0019260049,0.00073758052,-20608.0,28412.5,-15997.5,
78.924,-1.2478988,-0.16083437,9.737393,-0.0017455816,-0.000205695632,0.00087081176,-19840.0,28668.5,-14973.5,
79.043,-1.1353714,-0.22547782,9.768518,-0.0053428112,0.0031250828,-0.00046150108,-19584.0,27900.5,-15741.5,
79.161,-1.2407162,-0.16322857,9.715846,0.0015852153,0.006189406,0.0027360496,-19840.0,28156.5,-15229.5,
79.279,-1.2407162,-0.25660244,9.85471,-0.0026781856,0.0009933859,0.0011372734,-19584.0,28156.5,-15741.5,
79.401,-1.226351,-0.1895648,9.76373,-0.005609274,0.0032583176,-0.0031261258,-19840.0,28668.5,-14973.5,
79.516,-1.2335336,-0.22308362,9.758942,-1.3560057e-05,0.0024589264,-0.0001950385,-19584.0,28156.5,-16253.5,
79.633,-1.226351,-0.208718384,9.806826,-0.00414373,-0.0022041648,-0.0047249004,-20096.0,28156.5,-15741.5,
79.750,-1.190438,-0.203929984,9.814008,-0.0013458729,-0.0012715459,0.00073758052,-20352.0,27900.5,-15229.5,
79.873,-1.2407162,-0.14168076,9.785277,-0.00414373,-0.0020709336,0.0012705056,-20352.0,28412.5,-14461.5,
79.989,-1.2886004,-0.21829522,9.773307,0.000785827636,0.0055232496,0.0034022052,-19840.0,27644.5,-15997.5,
80.108,-1.2191684,-0.1895648,9.71824,-0.0022784918,0.004857093,-0.002726432,-20608.0,28156.5,-15485.5,
80.222,-1.2359278,-0.23266042,9.76373,-0.0012126416,-0.000738620736,-0.0021935068,-20608.0,27644.5,-15485.5,
80.340,-1.1593134,-0.12492134,9.83795,-0.0012126416,-7.246435e-05,-0.0020602756,-20096.0,27900.5,-15997.5,
80.462,-1.2167742,-0.16322857,9.754153,-0.004276961,0.003924474,0.0014037369,-20352.0,28156.5,-15741.5,
80.579,-1.2191684,-0.22068942,9.816402,-1.3560057e-05,0.00059369208,0.0011372734,-20096.0,27900.5,-15485.5,
80.697,-1.1521308,-0.24941984,9.466848,-0.0082739,0.011785116,-0.00752275664,-20096.0,27900.5,-16253.5,
80.814,-1.2646582,-0.14407496,9.780489,-0.0016123354,0.0064558648,-6.180722e-05,-19840.0,27900.5,-15741.5,
80.931,-1.1257946,-0.0052112564,9.667962,-0.0026781856,0.007921409,-0.0021935068,-19584.0,28156.5,-14973.5,
81.054,-1.2718408,-0.14407496,9.720634,-0.007607743,0.000460457068,0.000337886632,-20096.0,28924.5,-14205.5,
81.173,-1.2478988,-0.196747384,9.758942,0.0003861338,0.000460457068,0.0035354364,-19584.0,28668.5,-15485.5,
81.292,-1.178467,-0.13928655,9.835556,-0.004676655,0.0013930798,0.00286928,-19328.0,27900.5,-14973.5,
81.407,-1.3005714,-0.168016976,9.864286,-0.007874206,0.0035247804,-0.0016605817,-19584.0,27900.5,-15229.5,
81.526,-1.2431104,-0.23266042,9.739788,0.0010522902,0.0023256988,-0.0003282698,-20352.0,28412.5,-14717.5,
81.649,-1.0587571,0.030701768,9.809219,-0.0021452606,-0.005002022,-0.00339258784,-19584.0,28412.5,-14205.5,
81.767,-1.3891568,-0.172805368,9.76373,-0.00361080468,0.0032583176,-0.004458438,-19584.0,28412.5,-14717.5,
81.884,-1.178467,-0.21590102,9.830768,-0.007607743,-0.0072669532,-0.0015273513,-19840.0,27644.5,-14205.5,
82.000,-1.2119858,-0.201535792,9.749365,0.001451984,0.0029918552,0.000337886632,-20352.0,27644.5,-16509.5,
82.118,-1.1976206,-0.196747384,9.74697,-0.0040104984,0.0003272295,0.0024695872,-20096.0,27644.5,-15229.5,
82.241,-1.2886004,-0.235054608,9.79246,-0.0016123354,0.0019260049,0.0034022052,-20096.0,27644.5,-15229.5,
82.360,-1.1736786,-0.27815026,9.723028,-0.008806825,0.010985728,-0.002726432,-19840.0,28156.5,-15485.5,
82.476,-1.2646582,-0.16322857,9.830768,-0.0026781856,-0.0006053895,-0.003925513,-19840.0,27644.5,-15229.5,
82.592,-1.2335336,-0.19914159,9.758942,-0.0014791042,0.006589096,-0.0011276575,-20096.0,27900.5,-15229.5,
82.717,-1.2191684,-0.208718384,9.732605,-0.0021452606,-0.0014047772,0.0012705056,-19840.0,27388.5,-15741.5,
82.836,-1.0803049,-0.24463144,9.55304,0.0077138548,0.005123552,-0.001793813,-20352.0,27388.5,-16253.5,
82.951,-1.190438,-0.179988,9.713451,-0.0026781856,0.0009933859,0.00020465534,-19840.0,27900.5,-16509.5,
83.066,-1.1928322,-0.21111262,9.761335,-0.0022784918,0.00019399822,-0.000727963636,-20352.0,27900.5,-16509.5,
83.185,-1.1760728,-0.12731555,9.802037,-0.0050763636,0.004723858,-0.0003282698,-20096.0,27644.5,-15741.5,
83.307,-1.2407162,-0.21350682,9.754153,-0.002411738,0.0053900144,-0.000727963636,-20352.0,27900.5,-15997.5,
83.425,-1.2119858,-0.30688068,9.670356,-0.00094617908,-0.000871852064,-0.0031261258,-20352.0,27644.5,-14973.5,
83.544,-1.2359278,-0.14646916,9.739788,-0.00347757336,0.00072692332,-0.0005947314,-19840.0,27900.5,-15997.5,
83.661,-1.1329772,-0.08900832,9.732605,-0.0029446482,0.0031250828,0.00047111884,-20352.0,27644.5,-15997.5,
83.778,-1.2455046,-0.08900832,9.696692,-0.00361080468,-7.246435e-05,-0.0025932006,-20352.0,27900.5,-15997.5,
83.901,-1.2167742,-0.12731555,9.742182,-0.0017455816,0.0043241644,-0.00046150108,-19584.0,27900.5,-14461.5,
84.019,-1.2455046,-0.208718384,9.775701,-0.00347757336,0.004723858,-0.0016605817,-19840.0,27644.5,-15485.5,
84.138,-1.2886004,-0.28772706,9.809219,-0.0064086468,-0.00273709,-0.003925513,-20096.0,27388.5,-15997.5,
84.254,-1.3628206,-0.26857344,9.739788,-0.00094617908,-0.0032700152,-0.0019270442,-20096.0,27900.5,-16253.5,
84.371,-1.190438,-0.1871706,9.749365,-0.0022784918,0.0045906304,-0.001793813,-19840.0,27388.5,-15485.5,
84.493,-1.166496,-0.14168076,9.687116,0.00065259636,0.0041909368,0.00047111884,-19840.0,27900.5,-16509.5,
84.609,-1.2574756,-0.1847764,9.682327,-0.003344342,0.006056171,-0.0001950385,-20096.0,27900.5,-15741.5,
84.724,-1.226351,-0.168016976,9.677539,-0.0060089676,0.0063226336,-0.000727963636,-20352.0,27644.5,-14717.5,
84.843,-1.2526872,-0.14407496,9.742182,-0.0022784918,0.00179276984,-0.0020602756,-20608.0,27900.5,-15485.5,
84.962,-1.2407162,-0.16322857,9.703875,-0.0005464852,0.0029918552,-0.0021935068,-20096.0,27900.5,-16253.5,
85.085,-1.202409,-0.19914159,9.754153,0.0010522902,0.0028586238,-0.0012608878,-20096.0,27644.5,-15741.5,
85.204,-1.2407162,-0.168016976,9.756547,-0.001878798,0.0008601546,-0.004191975,-20352.0,27388.5,-14973.5,
85.320,-1.2598698,-0.21111262,9.770912,-0.0029446482,0.003924474,0.00020465534,-20352.0,27388.5,-15229.5,
85.437,-1.2311394,-0.16322857,9.706269,-0.0037440508,0.0040577016,-6.180722e-05,-20096.0,27644.5,-14717.5,
85.560,-1.1832554,-0.14168076,9.687116,-0.0013458729,0.0020592324,-0.0025932006,-20352.0,27644.5,-14973.5,
85.677,-1.2790234,-0.21111262,9.696692,-0.00067971648,0.006056171,0.0020698932,-20608.0,27132.5,-15997.5,
85.794,-1.2359278,-0.17759377,9.768518,-0.0037440508,0.0031250828,-0.0003282698,-20352.0,27644.5,-16253.5,
85.913,-1.2335336,-0.196747384,9.775701,-0.0054760424,0.0025921612,-0.0040587444,-20096.0,27644.5,-15229.5,
86.031,-1.2814176,-0.22068942,9.785277,-0.00347757336,0.0027253888,-0.0029928944,-19584.0,28156.5,-15229.5,
86.156,-1.1856496,-0.203929984,9.739788,-0.0045434236,0.001526311,-0.0019270442,-19840.0,27900.5,-15997.5,
86.274,-1.2455046,-0.21829522,9.754153,-0.0021452606,0.00072692332,0.001004043,-19840.0,27644.5,-15997.5,
86.391,-1.2407162,-0.1943532,9.869075,0.000785827636,-0.0030035526,0.0006043492,-20096.0,27388.5,-16253.5,
86.509,-1.226351,-0.196747384,9.773307,0.00464952,0.0075217187,-6.180722e-05,-20352.0,28156.5,-16509.5,
86.626,-1.250293,-0.196747384,9.814008,-0.0032111108,0.0029918552,-0.00339258784,-20096.0,27644.5,-16765.5,
86.750,-1.343667,-0.24223724,9.667962,-0.009472981,0.00019399822,0.0012705056,-20096.0,27900.5,-16253.5,
86.866,-1.21438,-0.17759377,9.787672,-0.0054760424,0.0021924674,-0.0015273513,-20096.0,27388.5,-15485.5,
86.984,-1.1712844,-0.206324184,9.696692,-0.0030778944,0.0008601546,-0.0021935068,-19584.0,27900.5,-14973.5,
87.101,-1.2311394,-0.201535792,9.780489,-0.002811417,0.0008601546,-0.0015273513,-20608.0,27388.5,-15485.5,
87.219,-1.307754,-0.196747384,9.794854,-0.0026781856,-0.00273709,0.00047111884,-20096.0,27644.5,-16509.5,
87.342,-1.226351,-0.235054608,9.744576,-0.0029446482,-0.0011383183,0.0020698932,-20096.0,27644.5,-15997.5,
87.460,-1.2119858,-0.13210395,9.71824,-0.007874206,-0.0014047772,7.142406e-05,-20096.0,27644.5,-15485.5,
87.575,-1.2838118,-0.23266042,9.782884,-0.002411738,0.0031250828,-6.180722e-05,-20096.0,27644.5,-16253.5,
87.692,-1.1617076,-0.12252714,9.62726,-0.002811417,0.007921409,-0.0063236756,-20096.0,27644.5,-16253.5,
87.807,-1.2071974,-0.1895648,9.735,-0.0026781856,0.003924474,0.00020465534,-19840.0,28156.5,-14717.5,
87.929,-1.2167742,-0.17759377,9.71824,-0.0064086468,0.0008601546,-0.0001950385,-20352.0,28412.5,-15997.5,
88.052,-1.1976206,-0.14886336,9.742182,-0.0044102072,-0.000205695632,0.0014037369,-20352.0,27644.5,-14973.5,
88.171,-1.2191684,-0.14886336,9.742182,-0.0038772672,0.0031250828,-0.0013941191,-20096.0,27900.5,-14973.5,
88.289,-1.2215626,-0.168016976,9.770912,-0.00094617908,0.0024589264,0.00286928,-20352.0,27644.5,-15485.5,
88.406,-1.2526872,-0.175199568,9.739788,0.0010522902,-0.0006053895,7.142406e-05,-20096.0,27644.5,-15997.5,
88.529,-1.1712844,-0.201535792,9.751759,-1.3560057e-05,0.0011266135,0.0031357436,-20096.0,27900.5,-15741.5,
88.649,-1.2071974,-0.22787202,9.706269,-0.00361080468,0.0057897084,-0.001793813,-20608.0,27388.5,-15997.5,
88.767,-1.1832554,-0.19914159,9.725423,-0.0037440508,0.0041909368,-0.0024599694,-20096.0,27388.5,-16253.5,
88.886,-1.2095916,-0.16562277,9.708663,-0.00028002262,-0.0010050833,-0.002726432,-19584.0,27644.5,-15485.5,
89.009,-1.2670524,-0.1895648,9.74697,-0.0038772672,0.008321103,-0.001793813,-20352.0,26876.5,-15485.5,
89.124,-1.2574756,-0.21829522,9.79246,-0.0073412808,0.0003272295,0.0016701994,-20096.0,27388.5,-15485.5,
89.240,-1.2239568,-0.179988,9.773307,-0.0025449544,0.0031250828,-0.001793813,-19584.0,27132.5,-15229.5,
89.355,-1.21438,-0.1943532,9.725423,-0.0005464852,-0.0048687904,-0.0011276575,-20096.0,27644.5,-16253.5,
89.470,-1.1928322,-0.201535792,9.725423,-0.005609274,0.0027253888,-0.004458438,-19840.0,27644.5,-16509.5,
89.592,-1.21438,-0.170411168,9.794854,-0.0026781856,0.004857093,0.00020465534,-20096.0,26620.5,-16509.5,
89.709,-1.202409,-0.17759377,9.735,-0.00694158636,-0.0028703212,0.00366866784,-20352.0,27388.5,-15485.5,
89.829,-1.1976206,-0.1943532,9.782884,-0.0014791042,0.005123552,-0.0019270442,-19328.0,27388.5,-15997.5,
89.945,-1.2574756,-0.203929984,9.768518,-0.004809886,0.001526311,-0.001793813,-19840.0,27644.5,-16509.5,
90.061,-1.250293,-0.1847764,9.778095,-0.0013458729,0.0003272295,0.0048677484,-20096.0,27132.5,-16253.5,
90.182,-1.2000148,-0.201535792,9.730211,-0.00414373,-0.000738620736,0.0006043492,-19840.0,27132.5,-16509.5,
90.300,-1.2335336,-0.206324184,9.749365,-0.00081294776,0.0011266135,7.142406e-05,-20352.0,27132.5,-16509.5,
90.418,-1.226351,-0.14407496,9.744576,0.0005193651,0.0019260049,-0.0005947314,-20096.0,27388.5,-15485.5,
90.535,-1.2598698,-0.22787202,9.670356,-0.0029446482,-0.0006053895,-0.0016605817,-20096.0,27388.5,-16509.5,
90.652,-1.2048032,-0.16083437,9.744576,-0.0038772672,0.003924474,-0.0037922818,-20096.0,27132.5,-16509.5,
90.776,-1.2455046,-0.17759377,9.79246,-0.004676655,0.00179276984,-0.0015273513,-20352.0,27900.5,-15997.5,
90.895,-1.2311394,-0.15844018,9.730211,0.000919044,0.0023256988,-0.0021935068,-19584.0,27132.5,-16253.5,
91.011,-1.2215626,-0.1823822,9.785277,-0.0038772672,0.0031250828,-0.002726432,-19840.0,27388.5,-17021.5,
91.127,-1.2119858,-0.175199568,9.761335,-0.001878798,0.0024589264,0.00047111884,-20096.0,26620.5,-17277.5,
91.245,-1.1593134,-0.21829522,9.689509,-0.002411738,-0.0019377023,0.0020698932,-19584.0,27132.5,-15741.5,
91.369,-1.202409,-0.13449815,9.720634,-0.0068083555,0.011785116,-0.005124594,-20352.0,27132.5,-17277.5,
91.486,-1.2287452,-0.191959,9.739788,-0.0025449544,0.0009933859,-0.0003282698,-20096.0,27900.5,-16253.5,
91.601,-1.1976206,-0.16562277,9.691904,-0.0030778944,0.0020592324,0.0012705056,-20608.0,27388.5,-15997.5,
91.719,-1.274235,-0.21350682,10.161167,-0.0101391376,0.005656477,-0.0001950385,-19840.0,27388.5,-15741.5,
91.836,-1.1856496,-0.170411168,9.730211,-0.0062754304,0.004723858,0.00073758052,-20608.0,26876.5,-16509.5,
91.959,-1.2215626,-0.175199568,9.754153,0.0031839908,0.0032583176,-0.0011276575,-20096.0,27644.5,-16509.5,
92.078,-1.21438,-0.208718384,9.742182,-0.002411738,0.006589096,-0.0024599694,-20096.0,27644.5,-16509.5,
92.193,-1.2191684,-0.170411168,9.739788,-0.00361080468,0.0033915452,0.0012705056,-20352.0,27900.5,-16253.5,
92.312,-1.2909946,-0.28533286,9.76373,-0.00347757336,-0.0039361716,-0.0028596632,-19840.0,27132.5,-16765.5,
92.435,-1.2455046,-0.179988,9.790066,-0.00520958,-0.0010050833,-0.00046150108,-20352.0,27644.5,-17021.5,
92.550,-1.2167742,-0.196747384,9.715846,-0.002411738,0.0068555624,7.142406e-05,-20352.0,27900.5,-16509.5,
92.667,-1.2071974,-0.21829522,9.694298,-0.0029446482,0.0003272295,-0.00046150108,-20096.0,27132.5,-16765.5,
92.784,-1.2694466,-0.22547782,9.751759,-0.0050763636,0.0027253888,-0.000727963636,-19840.0,27644.5,-15741.5,
92.903,-1.2886004,-0.09858513,9.79246,-0.003344342,0.00072692332,0.0026028176,-20096.0,27132.5,-16509.5,
93.024,-1.2000148,-0.12013294,9.725423,-0.0005464852,0.008720797,-0.0028596632,-20608.0,27388.5,-16253.5,
93.140,-1.202409,-0.27575606,9.768518,-0.0020120292,0.0059229432,0.0012705056,-20096.0,27900.5,-14973.5,
93.257,-1.1281888,-0.11534454,9.773307,-0.0044102072,-0.00180447468,7.142406e-05,-19840.0,27388.5,-14973.5,
93.375,-1.2526872,-0.15844018,9.727817,0.0029175282,-0.0003389269,0.0018034298,-19584.0,27132.5,-14461.5,
93.492,-1.154525,-0.074643108,9.754153,-0.00094617908,0.008587565,-0.0020602756,-20096.0,27132.5,-14973.5,
93.615,-1.2646582,-0.28293866,9.727817,-0.00094617908,-0.0010050833,0.0018034298,-20096.0,27388.5,-14973.5,
93.733,-1.2335336,-0.1823822,9.782884,-0.00094617908,0.0013930798,0.0011372734,-20352.0,27900.5,-15741.5,
93.850,-1.1976206,-0.27096764,9.694298,-0.0032111108,-0.0023373962,-0.0005947314,-19840.0,27644.5,-15997.5,
93.967,-1.1928322,-0.14886336,9.794854,-0.0005464852,0.0029918552,-0.0011276575,-20352.0,27644.5,-15997.5,
94.084,-1.2287452,-0.21590102,9.727817,-0.0017455816,0.0027253888,0.0011372734,-20864.0,27644.5,-15229.5,
94.207,-1.226351,-0.168016976,9.785277,-0.00067971648,0.0024589264,-0.0013941191,-20352.0,27132.5,-15997.5,
94.326,-1.2071974,-0.17759377,9.71824,-0.0030778944,-7.246435e-05,0.0014037369,-20608.0,27644.5,-15485.5,
94.444,-1.262264,-0.14168076,9.811614,-0.00414373,-0.00380293668,-0.0011276575,-20608.0,27900.5,-15997.5,
94.560,-1.238322,-0.206324184,9.708663,-0.00361080468,0.0023256988,-0.000727963636,-20352.0,27388.5,-15485.5,
94.685,-1.2000148,-0.21590102,9.761335,0.0003861338,0.0055232496,0.00087081176,-20096.0,27132.5,-14717.5,
94.802,-1.21438,-0.14646916,9.739788,-0.001878798,0.00698879,-0.0031261258,-19584.0,27644.5,-15741.5,
94.916,-1.1832554,-0.1871706,9.739788,-0.005609274,0.0033915452,-0.003925513,-19584.0,27644.5,-16253.5,
95.031,-1.238322,-0.15844018,9.756547,-0.00081294776,-0.0047355556,-0.0052578252,-19584.0,27644.5,-15741.5,
95.148,-1.21438,-0.201535792,9.754153,-0.0025449544,0.0053900144,-0.0037922818,-19840.0,26876.5,-15485.5,
95.273,-1.250293,-0.108161928,9.723028,-0.007874206,0.0009933859,-0.0020602756,-19840.0,27388.5,-15741.5,
95.390,-1.2814176,-0.16562277,9.74697,-0.00094617908,0.00738848368,-0.0008611949,-19840.0,27132.5,-14717.5,
95.507,-1.2646582,-0.206324184,9.797249,-0.003344342,-0.000205695632,-0.001793813,-20096.0,27388.5,-15997.5,
95.626,-1.2455046,-0.21590102,9.739788,-0.006142199,0.00072692332,-0.0047249004,-19584.0,27388.5,-15741.5,
95.743,-1.2478988,-0.1847764,9.76373,-0.0012126416,0.0021924674,0.00193666116,-19840.0,27388.5,-15229.5,
95.866,-1.190438,-0.179988,9.703875,0.0034504532,0.003791239,0.00087081176,-19840.0,26620.5,-16253.5,
95.980,-1.1688902,-0.1871706,9.742182,-0.0005464852,0.003924474,0.00020465534,-19584.0,26620.5,-16509.5,
96.095,-1.2191684,-0.206324184,9.701481,-0.0064086468,0.0013930798,-0.0013941191,-19840.0,27132.5,-15741.5,
96.213,-1.202409,-0.191959,9.770912,-0.0073412808,0.0032583176,0.00073758052,-19840.0,26876.5,-15997.5,
96.329,-1.226351,-0.15365176,9.761335,0.0019849092,-0.0024706236,-0.0019270442,-19584.0,27132.5,-15997.5,
96.452,-1.2000148,-0.17759377,9.754153,-0.0062754304,0.0036580116,-0.0016605817,-20352.0,27900.5,-15485.5,
96.571,-1.1952264,-0.179988,9.713451,0.0027842968,0.005656477,0.000337886632,-19840.0,27644.5,-15485.5,
96.687,-1.2311394,-0.16562277,9.735,-0.00720804936,0.0029918552,-0.0037922818,-19840.0,27388.5,-16509.5,
96.807,-1.2095916,-0.22787202,9.768518,-0.002811417,0.0016595423,0.0012705056,-19584.0,27644.5,-15997.5,
96.924,-1.250293,-0.16083437,9.754153,-0.00347757336,0.0016595423,-0.0021935068,-19328.0,27644.5,-15741.5,
97.048,-1.2167742,-0.1895648,9.818796,-0.0017455816,-0.0023373962,-6.180722e-05,-20096.0,28156.5,-15741.5,
97.164,-1.2311394,-0.16322857,9.713451,-0.0004132688,0.0021924674,-0.0029928944,-20352.0,27900.5,-15229.5,
97.281,-1.2431104,-0.208718384,9.675144,-0.007874206,0.0023256988,-0.006723369,-19840.0,27900.5,-14973.5,
97.398,-1.2095916,-0.19914159,9.76373,0.000119671224,0.0035247804,0.0012705056,-20352.0,27644.5,-16509.5,
97.519,-1.1880438,-0.203929984,9.790066,-0.0030778944,-0.0015380084,-0.0001950385,-20096.0,27900.5,-16253.5,
97.643,-1.2359278,-0.175199568,9.699086,-0.00520958,0.0012598485,-0.0005947314,-20096.0,28156.5,-15485.5,
97.759,-1.2215626,-0.21111262,9.79246,-0.0040104984,-0.0014047772,-0.0003282698,-19584.0,27644.5,-15229.5,
97.875,-1.2215626,-0.170411168,9.74697,-0.0021452606,0.0033915452,-0.004191975,-19584.0,28156.5,-15485.5,
97.992,-1.1688902,-0.21590102,9.689509,-0.0054760424,0.0021924674,-0.0009944253,-19840.0,27388.5,-16253.5,
98.116,-1.2215626,-0.172805368,9.742182,-0.00520958,0.0013930798,-0.001793813,-20096.0,27900.5,-16765.5,
98.232,-1.21438,-0.19914159,9.778095,-0.0032111108,0.0021924674,-0.0005947314,-20096.0,27132.5,-15485.5,
98.349,-1.274235,-0.22068942,9.766124,-0.00094617908,-0.000738620736,0.003268974,-19584.0,27388.5,-16509.5,
98.466,-1.154525,-0.235054608,9.699086,-0.0013458729,0.009386953,0.0014037369,-20096.0,27644.5,-16509.5,
98.584,-1.3053598,-0.235054608,9.744576,-0.0010794252,0.0041909368,-0.000727963636,-20096.0,27388.5,-15741.5,
98.709,-1.2048032,-0.22787202,9.778095,-0.0037440508,0.0024589264,-0.0025932006,-20352.0,27132.5,-16765.5,
98.826,-1.2048032,-0.206324184,9.794854,-0.007874206,0.0044573956,-0.003259357,-20352.0,27644.5,-16765.5,
98.943,-1.2119858,-0.15365176,9.761335,-0.00094617908,0.0055232496,0.00073758052,-19584.0,27900.5,-16509.5,
99.060,-1.2359278,-0.16562277,9.751759,-0.0020120292,0.0016595423,-0.0008611949,-19328.0,28156.5,-15485.5,
99.177,-1.2478988,-0.170411168,9.761335,-0.0030778944,0.000460457068,-0.0012608878,-19840.0,28156.5,-16509.5,
99.303,-1.2359278,-0.13449815,9.708663,-0.00347757336,0.0029918552,-0.0001950385,-19840.0,27644.5,-14973.5,
99.427,-1.21438,-0.16562277,9.711058,-0.0014791042,0.0028586238,-0.005524288,-19328.0,27900.5,-15229.5,
99.543,-1.202409,-0.1847764,9.775701,-0.00028002262,0.0031250828,-0.0003282698,-20096.0,27388.5,-15229.5,
99.658,-1.2191684,-0.201535792,9.694298,-0.0032111108,0.0025921612,0.0016701994,-19840.0,27900.5,-16253.5,
99.776,-1.025238,-0.0363358768,9.775701,-0.002411738,0.0067223272,0.004601286,-19072.0,27900.5,-15229.5,
99.898,-1.1928322,-0.110556132,9.799643,-0.00028002262,0.0049903208,-0.000727963636,-20352.0,28156.5,-16765.5,
100.018,-1.2191684,-0.1943532,9.790066,-0.00014679134,0.0067223272,-0.0019270442,-19584.0,27644.5,-17021.5,
100.135,-1.2407162,-0.168016976,9.780489,-0.0020120292,0.0003272295,0.002336355,-19840.0,27644.5,-16765.5,
100.253,-1.1401598,-0.23026622,9.639232,-0.004276961,0.006589096,0.00087081176,-19840.0,27388.5,-15485.5,
100.369,-1.1856496,-0.1943532,9.744576,-0.00014679134,0.00059369208,-0.0025932006,-19584.0,27644.5,-15997.5,
100.493,-1.2478988,-0.22068942,9.711058,-0.00933975,-0.0003389269,-0.0035258192,-19840.0,27900.5,-16765.5,
100.608,-1.2407162,-0.31885168,9.727817,0.0013187528,-0.0011383183,-0.0019270442,-19584.0,27900.5,-15997.5,
100.726,-1.0922758,-0.12013294,9.828373,-0.0057424904,0.0019260049,-0.0008611949,-20096.0,27644.5,-15741.5,
100.845,-1.3029656,-0.21111262,9.684721,-0.0044102072,-0.0003389269,-0.0036590504,-20096.0,27900.5,-15997.5,
100.969,-1.1736786,-0.11295034,9.814008,-0.00067971648,0.00179276984,-0.0009944253,-19840.0,27900.5,-14973.5,
101.088,-1.2670524,-0.27336186,9.730211,-0.0012126416,0.0055232496,-0.0029928944,-19840.0,27132.5,-16509.5,
101.206,-1.2526872,-0.16322857,9.684721,-0.0021452606,-0.0004721582,-0.0008611949,-20608.0,27900.5,-15485.5,
101.323,-1.2287452,-0.23026622,9.687116,-0.0020120292,-0.0004721582,-0.0025932006,-19328.0,27900.5,-16509.5,
101.440,-1.5711162,-0.38588932,9.667962,-0.00520958,-0.0014047772,-0.0008611949,-20352.0,27388.5,-15485.5,
101.561,-1.2431104,-0.108161928,9.725423,-0.001878798,0.0003272295,0.0014037369,-19328.0,27388.5,-15741.5,
101.679,-1.1688902,-0.13210395,9.76373,-1.3560057e-05,0.005656477,-0.0037922818,-19328.0,27644.5,-15229.5,
101.797,-1.2048032,-0.19914159,9.76373,-0.0045434236,0.0057897084,-0.0015273513,-19840.0,27132.5,-14973.5,
101.916,-1.1593134,-0.12492134,9.83795,-0.0062754304,-0.0006053895,-0.0012608878,-20096.0,28156.5,-15741.5,
102.033,-1.2335336,-0.14886336,9.797249,-0.0058757364,0.0035247804,-0.0048581316,-20096.0,27644.5,-15997.5,
102.157,-1.2095916,-0.16083437,9.725423,-0.00014679134,0.0009933859,-0.0011276575,-19840.0,27132.5,-15997.5,
102.275,-1.1617076,-0.175199568,9.749365,-0.0022784918,0.0041909368,0.0016701994,-19840.0,27644.5,-15229.5,
102.393,-1.202409,-0.1847764,9.730211,-0.0013458729,0.0029918552,-0.0021935068,-19840.0,27388.5,-14973.5,
102.509,-1.250293,-0.21590102,9.711058,-0.00028002262,0.0053900144,-0.0024599694,-20096.0,27644.5,-15997.5,
102.627,-1.2191684,-0.24463144,9.751759,-0.0025449544,-0.00793311,-0.0020602756,-19328.0,27388.5,-15741.5,
102.749,-1.2167742,-0.201535792,9.703875,0.00065259636,0.003924474,0.00087081176,-19840.0,27644.5,-16509.5,
102.867,-1.2287452,-0.1847764,9.780489,-0.0064086468,-0.0032700152,0.00193666116,-19584.0,27132.5,-15741.5,
102.985,-1.2478988,-0.15365176,9.766124,-0.0021452606,0.0016595423,0.0016701994,-19584.0,27132.5,-15741.5,
103.103,-1.250293,-0.179988,9.720634,-0.0016123354,0.000460457068,0.0006043492,-20352.0,27388.5,-16765.5,
103.224,-1.2335336,-0.206324184,9.739788,-0.0040104984,-0.0014047772,-0.0008611949,-19840.0,26876.5,-15997.5,
103.343,-1.250293,-0.175199568,9.711058,-0.0017455816,0.0028586238,-0.0012608878,-19584.0,26876.5,-15997.5,
103.461,-1.2359278,-0.1823822,9.761335,-0.00520958,0.00698879,7.142406e-05,-19584.0,26876.5,-16253.5,
103.574,-1.2407162,-0.13928655,9.751759,-0.00067971648,-0.0006053895,-0.0019270442,-19584.0,26876.5,-15741.5,
103.692,-1.2359278,-0.170411168,9.83795,-0.0029446482,0.004723858,-0.0025932006,-19584.0,26876.5,-15229.5,
103.816,-1.1593134,-0.175199568,9.679933,-0.0012126416,0.0044573956,-0.002726432,-19584.0,28156.5,-16253.5,
103.934,-1.2287452,-0.21590102,9.823585,0.001451984,-0.0020709336,0.0027360496,-19328.0,28924.5,-15229.5,
104.050,-1.2191684,-0.21590102,9.756547,-0.0010794252,-0.0006053895,-0.0015273513,-19072.0,28412.5,-16509.5,
104.166,-1.2455046,-0.15125756,9.814008,0.0011855215,-0.0034032464,-0.003259357,-19072.0,28412.5,-14717.5,
104.283,-1.226351,-0.17759377,9.74697,0.001451984,0.0059229432,-0.0012608878,-19328.0,28156.5,-15997.5,
104.405,-1.21438,-0.191959,9.756547,-0.0038772672,0.00698879,-0.0011276575,-18816.0,28668.5,-15741.5,
104.519,-1.0850933,-0.09619093,9.191516,-0.007474512,0.0096534152,-0.002726432,-19840.0,28412.5,-15229.5,
104.634,-1.2287452,-0.23026622,9.742182,-0.0058757364,0.0011266135,-0.0019270442,-19584.0,28668.5,-15485.5,
104.752,-1.238322,-0.14646916,9.754153,0.0002528876,0.0032583176,7.142406e-05,-19072.0,29692.5,-16253.5,
104.868,-1.1928322,-0.22308362,9.782884,-0.0005464852,0.0033915452,0.0006043492,-19072.0,29436.5,-15741.5,
104.990,-1.2071974,-0.26378504,9.715846,-0.00347757336,0.00059369208,0.0024695872,-19584.0,29180.5,-15229.5,
105.108,-1.2000148,-0.208718384,9.723028,-0.0014791042,0.005656477,0.0027360496,-19840.0,28668.5,-15741.5,
105.226,-1.2000148,-0.16083437,9.814008,-0.004676655,0.001526311,-0.0001950385,-19840.0,28668.5,-16509.5,
105.342,-1.1856496,-0.13210395,9.711058,-0.00094617908,0.006589096,-0.0009944253,-19840.0,28668.5,-15997.5,
105.459,-1.2431104,-0.13210395,9.806826,-0.0014791042,0.006189406,-0.0016605817,-19840.0,28924.5,-15485.5,
105.582,-1.2550814,-0.22308362,9.730211,-0.00361080468,0.0031250828,0.00073758052,-20096.0,28412.5,-15997.5,
105.701,-1.274235,-0.208718384,9.768518,-0.0044102072,0.0049903208,0.0035354364,-19840.0,28924.5,-14717.5,
105.819,-1.1712844,-0.21111262,9.711058,-0.0016123354,-7.246435e-05,0.001004043,-19328.0,29436.5,-15229.5,
105.935,-1.190438,-0.1847764,9.761335,0.0017184466,0.0020592324,0.0011372734,-19072.0,29436.5,-15485.5,
106.057,-1.2478988,-0.22787202,9.74697,-0.006142199,0.004857093,7.142406e-05,-19840.0,29436.5,-15229.5,
106.172,-1.2335336,-0.15604596,9.790066,0.0002528876,0.003924474,-0.00046150108,-19328.0,29180.5,-14717.5,
106.288,-1.2048032,-0.170411168,9.797249,-0.00067971648,0.0009933859,0.0034022052,-19840.0,28412.5,-14973.5,
106.406,-1.250293,-0.235054608,9.79246,-0.00014679134,0.0016595423,-0.0019270442,-19584.0,28924.5,-15485.5,
106.524,-1.202409,-0.21829522,9.766124,-0.00694158636,0.00019399822,0.00047111884,-20096.0,28668.5,-15741.5,
106.648,-1.2526872,-0.201535792,9.725423,-0.0025449544,0.0036580116,-0.0029928944,-20096.0,28156.5,-14461.5,
106.766,-1.226351,-0.15604596,9.723028,-0.0053428112,0.0049903208,-0.0001950385,-19840.0,28668.5,-15741.5,
106.883,-1.2598698,-0.13449815,9.758942,-0.0013458729,-0.0012715459,0.0006043492,-19840.0,29180.5,-15741.5,
107.001,-1.2335336,-0.14646916,9.809219,-1.3560057e-05,6.0766936e-05,-0.001793813,-19840.0,28668.5,-15741.5,
107.118,-1.226351,-0.175199568,9.749365,-0.002411738,0.006056171,-0.0009944253,-20352.0,29180.5,-15741.5,
107.240,-1.2048032,-0.1847764,9.739788,-0.0030778944,0.0003272295,-0.0011276575,-19584.0,28924.5,-16253.5,
107.357,-1.202409,-0.16083437,9.758942,0.0002528876,0.0053900144,0.00087081176,-19584.0,28412.5,-16765.5,
107.473,-1.2071974,-0.175199568,9.79246,-0.00067971648,6.0766936e-05,-0.00339258784,-20096.0,29180.5,-16765.5,
107.593,-1.2455046,-0.22787202,9.735,-0.0029446482,-0.004469093,0.0020698932,-20352.0,29180.5,-15485.5,
107.709,-1.2455046,-0.179988,9.713451,-0.00094617908,0.00072692332,-0.0003282698,-20096.0,29180.5,-15741.5,
107.831,-1.2215626,-0.175199568,9.770912,-0.0058757364,0.006056171,0.000337886632,-19584.0,29180.5,-15997.5,
107.950,-1.3340902,-0.33082268,9.794854,-0.001878798,0.0055232496,-6.180722e-05,-19584.0,29436.5,-17277.5,
108.066,-1.1449482,-0.08182572,9.758942,0.0010522902,0.010985728,0.00193666116,-19584.0,28668.5,-16253.5,
108.184,-1.166496,-0.15844018,9.725423,0.0015852153,0.0027253888,-0.0024599694,-20352.0,28412.5,-17021.5,
108.307,-1.2359278,-0.13449815,9.785277,-0.00520958,0.001526311,0.00073758052,-19840.0,28156.5,-16509.5,
108.423,-1.2574756,-0.168016976,9.821191,0.0038501472,0.0012598485,-0.0005947314,-19840.0,28668.5,-17533.5,
108.542,-1.2048032,-0.1871706,9.799643,-0.006541893,0.0032583176,-6.180722e-05,-20096.0,28668.5,-16765.5,
108.657,-1.2095916,-0.16562277,9.835556,-0.0044102072,0.006056171,-0.00046150108,-19584.0,28668.5,-16253.5,
108.774,-1.2646582,-0.170411168,9.76373,-0.0044102072,-0.0026038588,0.000337886632,-19328.0,28156.5,-15997.5,
108.899,-1.2335336,-0.21829522,9.756547,0.000119671224,0.0021924674,-0.0045916692,-19584.0,28668.5,-16509.5,
109.018,-1.2598698,-0.1943532,9.677539,-0.0010794252,0.0009933859,0.000337886632,-19840.0,29180.5,-15741.5,
109.135,-1.2694466,-0.15125756,9.742182,0.00065259636,0.00179276984,0.0006043492,-20096.0,28412.5,-16253.5,
109.254,-1.250293,-0.21350682,9.677539,0.0019849092,0.0064558648,-0.0005947314,-20352.0,28156.5,-17277.5,
109.370,-1.2167742,-0.172805368,9.790066,-0.0012126416,6.0766936e-05,0.0012705056,-20352.0,27900.5,-17021.5,
109.510,-1.2119858,-0.14646916,9.699086,-0.0016123354,0.0033915452,0.0026028176,-20352.0,27644.5,-17021.5,
109.627,-1.21438,-0.191959,9.756547,-0.006541893,0.003791239,0.001004043,-20096.0,28156.5,-16765.5,
109.740,-1.202409,-0.17759377,9.751759,-0.0010794252,0.0025921612,7.142406e-05,-20352.0,27900.5,-16253.5,
109.857,-1.21438,-0.203929984,9.720634,-0.004276961,0.007122021,-0.0016605817,-20096.0,28156.5,-15485.5,
109.974,-1.2311394,-0.14407496,9.778095,-0.003344342,0.0033915452,0.00087081176,-20352.0,28412.5,-16253.5,
110.097,-1.2359278,-0.22308362,9.847527,-0.0005464852,-0.00273709,0.001004043,-19584.0,28156.5,-15485.5,
110.212,-1.2167742,-0.15125756,9.754153,-0.0017455816,-0.0014047772,-0.0025932006,-20096.0,27132.5,-15741.5,
110.330,-1.2239568,-0.208718384,9.706269,-0.0014791042,0.0033915452,0.000337886632,-19840.0,27900.5,-15485.5,
110.449,-1.2455046,-0.203929984,9.806826,-0.0044102072,0.00725525236,-0.0015273513,-19584.0,28668.5,-15485.5,
110.569,-1.2095916,-0.14168076,9.730211,-0.00081294776,0.00698879,0.0014037369,-19584.0,28412.5,-15997.5,
110.691,-1.1928322,-0.19914159,9.768518,-0.002411738,0.00738848368,0.0012705056,-19072.0,28156.5,-15485.5,
110.817,-1.2095916,-0.22068942,9.749365,-0.0064086468,0.0023256988,0.00087081176,-19072.0,27644.5,-15997.5,
110.935,-1.2191684,-0.172805368,9.758942,-0.002411738,6.0766936e-05,-0.0005947314,-18560.0,27388.5,-15741.5,
111.052,-1.2311394,-0.170411168,9.775701,-0.00094617908,-0.00180447468,-0.0015273513,-19328.0,27132.5,-15485.5,
111.178,-1.2000148,-0.14168076,9.76373,0.0002528876,0.0013930798,-0.0009944253,-19584.0,27900.5,-15485.5,
111.293,-1.1090352,-0.172805368,9.617683,-0.0020120292,0.009386953,0.00193666116,-19584.0,27644.5,-15229.5,
111.411,-1.166496,-0.15125756,9.799643,-0.0092065184,-0.000871852064,0.00020465534,-19328.0,28156.5,-15229.5,
111.529,-1.2000148,-0.203929984,9.6105,-0.0022784918,0.005123552,-0.0035258192,-19072.0,27388.5,-14717.5,
111.646,-1.1617076,-0.16322857,9.725423,-0.00067971648,0.0013930798,-0.0028596632,-19072.0,27132.5,-14461.5,
111.769,-1.2119858,-0.16083437,9.754153,-0.0026781856,-0.0003389269,-0.0008611949,-19840.0,27900.5,-14717.5,
111.887,-1.1880438,-0.13210395,9.802037,-0.001878798,0.0020592324,-6.180722e-05,-19584.0,27900.5,-15485.5,
112.003,-1.2550814,-0.196747384,9.701481,-0.0016123354,0.008321103,-0.0005947314,-19584.0,27388.5,-14973.5,
112.120,-1.0156612,-0.14886336,9.730211,-0.0045434236,0.0075217187,0.000337886632,-19840.0,27900.5,-15229.5,
112.241,-1.2311394,-0.29730386,9.751759,-0.0010794252,0.006189406,-0.006190444,-19840.0,27900.5,-15741.5,
112.362,-1.118612,-0.16562277,9.802037,-0.0022784918,0.0053900144,0.000337886632,-18816.0,27900.5,-14717.5,
112.481,-1.2598698,-0.203929984,9.742182,-0.00081294776,0.003791239,0.0026028176,-19072.0,28156.5,-14973.5,
112.599,-1.226351,-0.10576773,9.71824,0.00065259636,0.0043241644,-0.0005947314,-18816.0,27644.5,-16509.5,
112.715,-1.3221192,-0.175199568,9.76373,0.0021181404,-0.0020709336,-0.0011276575,-19584.0,28156.5,-15997.5,
112.839,-1.1976206,-0.15844018,9.636837,0.0005193651,0.0011266135,0.0016701994,-19072.0,27900.5,-15485.5,
112.957,-1.2359278,-0.22068942,9.770912,-0.00774095936,0.0031250828,-0.0036590504,-19072.0,27132.5,-16253.5,
113.076,-1.2407162,-0.1943532,9.780489,-0.0040104984,0.0028586238,-0.0020602756,-19072.0,27132.5,-16509.5,
113.193,-1.2862062,-0.208718384,9.758942,0.001451984,-0.0019377023,-0.0019270442,-19328.0,27132.5,-15485.5,
113.312,-1.202409,-0.191959,9.74697,0.00065259636,-0.000205695632,0.00193666116,-19072.0,27388.5,-15741.5,
113.435,-1.3604264,-0.175199568,9.703875,-0.002811417,0.0029918552,0.000337886632,-18816.0,27388.5,-15485.5,
113.554,-1.2335336,-0.11534454,9.756547,-0.0049431176,-0.0028703212,-0.00046150108,-19328.0,27388.5,-15741.5,
113.672,-1.274235,-0.191959,9.790066,-0.0038772672,0.0025921612,-0.0028596632,-19072.0,26876.5,-15485.5,
113.787,-1.2694466,-0.31166908,9.706269,0.0015852153,0.00698879,-0.0031261258,-19584.0,27132.5,-15229.5,
113.904,-1.2526872,-0.22547782,9.814008,-0.0010794252,0.0003272295,0.00366866784,-19584.0,27644.5,-15229.5,
114.028,-1.2646582,-0.21111262,9.689509,-0.0064086468,0.0011266135,-0.0008611949,-19584.0,27644.5,-16509.5,
114.145,-1.2167742,-0.172805368,9.74697,-0.0021452606,-0.0012715459,-0.0025932006,-19328.0,26876.5,-14717.5,
114.264,-1.21438,-0.16562277,9.679933,-0.006142199,0.0003272295,-0.0029928944,-20096.0,27644.5,-15485.5,
114.379,-1.2071974,-0.22787202,9.742182,-0.0053428112,0.0023256988,-0.0001950385,-19072.0,27644.5,-15485.5,
114.497,-1.1976206,-0.203929984,9.706269,-0.0060089676,0.0021924674,-0.0005947314,-19072.0,27132.5,-15741.5,
114.621,-1.2167742,-0.191959,9.768518,-0.0005464852,0.0023256988,-0.0005947314,-19328.0,27132.5,-15485.5,
114.737,-1.2359278,-0.1943532,9.778095,-0.0021452606,0.0076549464,-0.0009944253,-19072.0,27388.5,-14973.5,
114.854,-1.2526872,-0.1943532,9.749365,-0.006142199,0.0003272295,-0.0024599694,-18816.0,27388.5,-15741.5,
114.970,-1.2814176,-0.1943532,9.727817,-0.006142199,0.0013930798,0.00193666116,-19328.0,26876.5,-15741.5,
115.087,-1.2526872,-0.172805368,9.754153,-0.0058757364,-7.246435e-05,-0.0003282698,-19072.0,26876.5,-15485.5,
115.211,-1.1928322,-0.22787202,9.727817,-0.00014679134,0.009919878,7.142406e-05,-19072.0,26876.5,-15229.5,
115.327,-1.2526872,-0.28293866,9.725423,-0.00028002262,0.0029918552,-6.180722e-05,-19328.0,27388.5,-16765.5,
115.444,-1.1880438,-0.15604596,9.720634,0.0002528876,0.004723858,-0.0016605817,-19584.0,26876.5,-15229.5,
115.560,-1.1641018,-0.11534454,9.677539,-0.00361080468,0.00019399822,0.001004043,-18816.0,27132.5,-16253.5,
115.684,-1.2335336,-0.15604596,9.74697,0.000785827636,0.006056171,-0.004458438,-19072.0,27132.5,-15229.5,
115.801,-1.166496,-0.170411168,9.735,-0.0032111108,0.0033915452,-0.0031261258,-19328.0,27644.5,-15485.5,
115.918,-1.295783,-0.203929984,9.742182,-0.002411738,0.00072692332,-0.0037922818,-19328.0,27388.5,-15741.5,
116.036,-1.1976206,-0.14407496,9.804431,-0.00028002262,-0.0006053895,0.0006043492,-19584.0,26876.5,-14717.5,
116.153,-1.2359278,-0.1847764,9.806826,-0.00067971648,0.0059229432,0.00073758052,-19328.0,26876.5,-15229.5,
116.275,-1.2431104,-0.179988,9.754153,-0.004276961,0.0036580116,0.0026028176,-19328.0,26876.5,-16509.5,
116.391,-1.2191684,-0.1823822,9.778095,-0.0032111108,-7.246435e-05,-0.0005947314,-19584.0,27132.5,-15485.5,
116.506,-1.2071974,-0.16322857,9.735,-0.0021452606,-7.246435e-05,-0.0016605817,-19584.0,27388.5,-15485.5,
116.624,-1.2095916,-0.17759377,9.744576,-0.0040104984,-0.0012715459,-0.0025932006,-19328.0,26876.5,-15229.5,
116.743,-1.2574756,-0.24702564,9.744576,-0.0053428112,-7.246435e-05,-0.00046150108,-19072.0,27388.5,-15741.5,
116.866,-1.2646582,-0.15604596,9.773307,-0.0068083555,0.005123552,-0.0012608878,-19584.0,27644.5,-15741.5,
116.985,-1.250293,-0.16562277,9.761335,-0.0037440508,0.0059229432,-0.0024599694,-19840.0,27644.5,-15741.5,
117.102,-1.2455046,-0.28772706,9.665567,-0.0037440508,0.004857093,-6.180722e-05,-19328.0,27644.5,-15741.5,
117.219,-1.2455046,-0.172805368,9.828373,-0.0032111108,0.0023256988,-0.0035258192,-19328.0,27132.5,-15485.5,
117.338,-1.3245134,-0.22308362,9.600924,-0.0040104984,0.0036580116,-0.0028596632,-19328.0,27132.5,-15229.5,
117.461,-1.250293,-0.17759377,9.778095,-0.00014679134,0.0059229432,0.0016701994,-19584.0,27644.5,-14461.5,
117.579,-1.2431104,-0.203929984,9.751759,-0.003344342,0.005123552,-0.0031261258,-19328.0,27644.5,-15485.5,
117.696,-1.2886004,-0.17759377,9.735,-0.0021452606,0.0049903208,-0.001793813,-20608.0,27644.5,-15741.5,
117.814,-1.2574756,-0.21590102,9.778095,-0.001878798,-0.005002022,-0.0021935068,-19328.0,27900.5,-14205.5,
117.936,-1.1856496,-0.1943532,9.780489,-0.00094617908,0.000460457068,-0.0076559876,-19584.0,27388.5,-15229.5,
118.056,-1.1976206,-0.25660244,9.715846,-0.00014679134,0.0021924674,-0.0024599694,-19840.0,27388.5,-15229.5,
118.174,-1.1976206,-0.24463144,9.691904,-0.0004132688,0.0021924674,-0.003259357,-19584.0,26620.5,-15229.5,
118.291,-1.226351,-0.191959,9.732605,-0.0013458729,0.00059369208,-0.001793813,-19840.0,26876.5,-14717.5,
118.406,-1.2407162,-0.03154748,9.706269,-0.008940056,0.0067223272,-0.003259357,-19328.0,27132.5,-16253.5,
118.528,-1.2311394,-0.14886336,9.756547,-0.0012126416,0.003791239,-0.0043252064,-19328.0,27388.5,-16765.5,
118.645,-1.202409,-0.14168076,9.744576,-0.0030778944,0.0024589264,0.00193666116,-19328.0,27132.5,-16765.5,
118.763,-1.3580322,-0.3451879,9.835556,-0.0050763636,0.001526311,-0.004458438,-19584.0,26620.5,-15741.5,
118.878,-1.2215626,-0.13689235,9.770912,0.00065259636,0.0003272295,-0.0015273513,-20096.0,26364.5,-15229.5,
118.996,-1.2526872,-0.19914159,9.768518,0.0002528876,0.0011266135,0.0031357436,-19584.0,26876.5,-15485.5,
119.121,-1.2311394,-0.239843016,9.727817,0.0003861338,0.0021924674,0.00286928,-19840.0,26620.5,-15485.5,
119.238,-1.2311394,-0.179988,9.754153,-0.0068083555,0.0027253888,-0.0005947314,-19328.0,26620.5,-15997.5,
119.356,-1.226351,-0.1871706,9.790066,-0.0014791042,-0.000871852064,-0.0008611949,-19840.0,26620.5,-15741.5,
119.472,-1.2000148,-0.201535792,9.711058,-0.004809886,0.005256787,-0.0029928944,-18816.0,27132.5,-14973.5,
119.589,-1.2191684,-0.168016976,9.71824,-0.0012126416,0.006589096,-0.0012608878,-19328.0,27388.5,-15997.5,
119.712,-1.2431104,-0.201535792,9.811614,0.0003861338,-0.00273709,-0.0024599694,-18816.0,26876.5,-15485.5,
119.829,-1.2167742,-0.175199568,9.790066,-0.0025449544,0.0068555624,0.0026028176,-19328.0,27388.5,-16253.5,
119.947,-1.2071974,-0.24223724,9.732605,-0.004809886,0.0023256988,0.00047111884,-19328.0,26876.5,-15485.5,
120.064,-1.250293,-0.168016976,9.71824,-0.001878798,-0.000871852064,-0.00046150108,-19328.0,26876.5,-15229.5,
120.182,-1.2335336,-0.175199568,9.677539,-0.0054760424,-0.000738620736,0.00047111884,-19328.0,27132.5,-15997.5,
120.308,-1.2095916,-0.1871706,9.742182,-0.0010794252,0.0033915452,-0.0009944253,-19072.0,27132.5,-15485.5,
120.424,-1.2119858,-0.16322857,9.761335,-0.00774095936,0.0055232496,-0.004191975,-19072.0,26876.5,-14973.5,
120.542,-1.2095916,-0.1871706,9.701481,-0.0050763636,0.0031250828,-0.001793813,-19072.0,27132.5,-16509.5,
120.658,-1.2000148,-0.14407496,9.742182,-0.0029446482,0.00179276984,-0.0001950385,-18816.0,27388.5,-15997.5,
120.782,-1.2167742,-0.14646916,9.758942,-0.0017455816,0.0020592324,0.00020465534,-18816.0,27132.5,-14973.5,
120.900,-1.2048032,-0.1823822,9.758942,-0.004276961,0.00072692332,-0.0021935068,-18816.0,27388.5,-15741.5,
121.015,-1.2550814,-0.15844018,9.730211,-0.0049431176,0.0028586238,0.0014037369,-18816.0,26620.5,-16253.5,
121.134,-1.2071974,-0.1895648,9.696692,-0.0022784918,0.0021924674,0.001004043,-18816.0,26620.5,-15485.5,
121.250,-1.2455046,-0.235054608,9.701481,-0.0045434236,0.003924474,0.00047111884,-18560.0,26364.5,-16509.5,
121.373,-1.2550814,-0.1895648,9.706269,-0.0053428112,0.0013930798,0.0018034298,-19328.0,26620.5,-15229.5,
121.491,-1.2526872,-0.208718384,9.720634,-0.00081294776,0.0003272295,-0.0025932006,-19328.0,26876.5,-15229.5,
121.609,-1.1976206,-0.22787202,9.785277,-0.001878798,-0.0024706236,-0.0001950385,-19072.0,27132.5,-14461.5,
121.726,-1.1928322,-0.22547782,9.730211,-0.0010794252,0.0027253888,-0.0008611949,-18816.0,27644.5,-15741.5,
121.843,-1.2526872,-0.21111262,9.859498,-0.0053428112,-0.0039361716,0.0044680556,-18816.0,27388.5,-15741.5,
121.966,-1.2191684,-0.1871706,9.74697,-0.00361080468,0.0025921612,-0.000727963636,-19328.0,27132.5,-14973.5,
122.084,-1.2407162,-0.196747384,9.770912,-0.0032111108,0.0021924674,0.005267442,-18816.0,27388.5,-15229.5,
122.208,-1.1042468,-0.1943532,9.361504,-0.011871144,0.022443614,-0.00046150108,-19072.0,27132.5,-14717.5,
122.324,-1.262264,-0.23266042,9.754153,-0.0020120292,0.0033915452,-0.000727963636,-19072.0,27132.5,-15741.5,
122.442,-1.2239568,-0.175199568,9.802037,-0.0026781856,0.00019399822,-0.0019270442,-18816.0,27388.5,-14205.5,
122.567,-1.1928322,-0.1871706,9.751759,-0.0021452606,0.0032583176,-0.0025932006,-19072.0,27132.5,-15485.5,
122.684,-1.238322,-0.1895648,9.646414,-0.0044102072,0.0044573956,0.00073758052,-18816.0,27132.5,-14205.5,
122.801,-1.2455046,-0.079431508,9.708663,-0.0017455816,0.0019260049,0.00073758052,-18560.0,27900.5,-14461.5,
122.920,-1.1976206,-0.24223724,9.725423,-0.0013458729,-0.0011383183,-0.0011276575,-18816.0,27644.5,-14461.5,
123.044,-1.2598698,-0.16322857,9.761335,-0.00094617908,-0.000738620736,-0.00339258784,-18816.0,27388.5,-14461.5,
123.164,-1.3005714,-0.170411168,9.720634,-0.00361080468,-0.0006053895,0.003801899,-18816.0,27644.5,-14717.5,
123.283,-1.2311394,-0.168016976,9.713451,-0.0044102072,0.000460457068,0.000337886632,-19328.0,27900.5,-13693.5,
123.404,-1.1377656,-0.09858513,9.725423,-0.0025449544,0.006589096,-0.003259357,-19072.0,27644.5,-15229.5,
123.520,-1.1736786,-0.14886336,9.758942,-0.0004132688,0.00179276984,0.00366866784,-18560.0,27388.5,-14973.5,
123.646,-1.226351,-0.16083437,9.782884,-0.005609274,0.0003272295,7.142406e-05,-19072.0,27132.5,-14973.5,
123.761,-1.2167742,-0.175199568,9.770912,-0.0005464852,0.0023256988,0.0054006736,-19072.0,27644.5,-14205.5,
123.879,-1.2095916,-0.13210395,9.727817,0.0003861338,-0.0003389269,-0.0003282698,-19584.0,27900.5,-14717.5,
123.995,-1.166496,-0.11534454,9.773307,-0.0016123354,0.0025921612,-0.0009944253,-19072.0,27644.5,-15485.5,
124.112,-1.250293,-0.21111262,9.761335,-0.003344342,0.0041909368,-0.00046150108,-19328.0,27388.5,-14717.5,
124.234,-1.2766292,-0.1847764,9.778095,-0.0040104984,0.0028586238,0.00073758052,-19072.0,27644.5,-15485.5,
124.351,-1.2646582,-0.13928655,9.79246,-0.0030778944,-7.246435e-05,-0.0057907504,-19072.0,28668.5,-14717.5,
124.468,-1.2526872,-0.1847764,9.775701,-0.00347757336,0.0075217187,0.00073758052,-18816.0,28668.5,-15485.5,
124.587,-1.1162178,-0.10097933,9.735,-0.0012126416,0.0012598485,0.0020698932,-19328.0,27644.5,-14973.5,
124.704,-1.274235,-0.172805368,9.761335,-0.0057424904,-7.246435e-05,0.00020465534,-19584.0,27644.5,-13949.5,
124.828,-1.2646582,-0.206324184,9.682327,-0.0050763636,0.001526311,-0.0015273513,-18816.0,28924.5,-13949.5,
124.947,-1.21438,-0.170411168,9.799643,-0.00014679134,-0.0024706236,-0.000727963636,-18560.0,28668.5,-15485.5,
125.065,-1.2095916,-0.22547782,9.758942,-0.0004132688,0.0021924674,-0.00046150108,-18816.0,29180.5,-14205.5,
125.183,-1.1952264,-0.14168076,9.749365,-0.007074803,0.00059369208,-0.0001950385,-19840.0,28412.5,-14461.5,
125.305,-1.1593134,-0.14646916,9.756547,-0.0026781856,-0.0012715459,0.00073758052,-19072.0,28924.5,-15741.5,
125.423,-1.2718408,-0.168016976,9.780489,0.0011855215,0.0003272295,-0.0012608878,-19328.0,28924.5,-14973.5,
125.542,-1.2646582,-0.15604596,9.816402,-0.00361080468,0.001526311,-0.0037922818,-18816.0,28668.5,-15485.5,
125.661,-1.2287452,-0.1847764,9.732605,-0.0005464852,0.003924474,0.001004043,-19328.0,28412.5,-15997.5,
125.775,-1.2431104,-0.1823822,9.775701,-1.3560057e-05,0.006056171,0.0040683616,-19584.0,29180.5,-14717.5,
125.897,-1.2095916,-0.16083437,9.715846,0.00464952,0.0043241644,-6.180722e-05,-18560.0,29436.5,-15741.5,
126.013,-1.2071974,-0.15125756,9.756547,-0.00347757336,0.0003272295,0.0030025114,-19072.0,29180.5,-15997.5,
126.132,-1.190438,-0.16562277,9.749365,-0.0037440508,0.0053900144,-0.0016605817,-18816.0,29180.5,-16253.5,
126.249,-0.9893251,-0.053095296,9.907382,-0.0060089676,0.0105860344,-0.0015273513,-19328.0,28412.5,-16509.5,
126.367,-1.2718408,-0.25420824,9.811614,0.0013187528,0.0008601546,-0.0021935068,-18816.0,28412.5,-17533.5,
126.489,-1.1688902,-0.168016976,9.655991,-0.004276961,0.0021924674,0.002336355,-19072.0,28412.5,-15741.5,
126.607,-1.3221192,-0.19914159,9.988785,-0.00414373,-0.0062011032,-0.002726432,-18816.0,28668.5,-15741.5,
126.724,-1.2167742,-0.11295034,9.814008,0.0022513718,-0.009132192,0.0030025114,-18816.0,28412.5,-16765.5,
126.841,-1.2359278,-0.21590102,9.720634,-0.00081294776,-0.00380293668,0.0006043492,-18048.0,28156.5,-15741.5,
126.959,-1.274235,-0.13928655,9.708663,-0.002411738,-0.000205695632,0.0031357436,-18304.0,29180.5,-15485.5,
127.083,-1.2335336,-0.16322857,9.761335,-0.0032111108,0.005656477,0.00073758052,-18560.0,28924.5,-14973.5,
127.200,-1.2071974,-0.22547782,9.59853,-0.0010794252,0.006589096,-0.002726432,-18560.0,28668.5,-15485.5,
127.315,-1.3221192,-0.28293866,9.916959,-0.001878798,-0.004602328,0.0015369672,-18304.0,28924.5,-14461.5,
127.431,-1.2790234,-0.21111262,10.022304,-0.004676655,-0.007400181,-0.0009944253,-19328.0,29692.5,-13949.5,
127.553,-1.295783,-0.27096764,9.897805,-0.0025449544,-0.0028703212,0.005267442,-18816.0,28668.5,-14205.5,
127.670,-1.2431104,-0.1895648,9.859498,0.0031839908,-0.0012715459,0.002336355,-18816.0,28412.5,-14461.5,
127.786,-1.1688902,-0.110556132,9.732605,-0.002811417,0.0011266135,-0.0013941191,-19072.0,28924.5,-13693.5,
127.905,-1.37958,-0.22787202,10.127648,-0.0044102072,-0.017126064,0.00087081176,-18304.0,29692.5,-15229.5,
128.022,-1.0731223,-0.15604596,9.634443,-0.00361080468,0.011785116,-0.0013941191,-19072.0,29180.5,-14973.5,
128.147,-1.238322,-0.17759377,9.893017,-0.002411738,-0.00273709,-0.0021935068,-19584.0,28924.5,-15485.5,
128.263,-1.3388786,-0.27336186,9.988785,-0.009472981,0.00019399822,-0.0031261258,-18816.0,29692.5,-15741.5,
128.381,-1.5495684,-0.37631252,9.864286,0.000785827636,-0.006467562,-0.0019270442,-19328.0,29436.5,-15485.5,
128.498,-1.0563629,-0.024364874,9.725423,-0.007074803,0.0096534152,0.00020465534,-19328.0,29180.5,-16253.5,
128.615,-1.2239568,-0.22308362,9.799643,0.001451984,0.0019260049,-0.0011276575,-18816.0,29948.5,-16509.5,
128.739,-1.3005714,-0.17759377,9.76373,-0.0010794252,-0.0028703212,-0.0021935068,-19072.0,29436.5,-14973.5,
128.858,-1.142554,-0.1895648,9.641625,-0.00094617908,0.011651885,-0.003259357,-18560.0,29692.5,-15229.5,
128.973,-1.1736786,-0.16562277,9.725423,0.00065259636,0.0059229432,0.000337886632,-19072.0,29180.5,-15485.5,
129.092,-1.1473424,-0.16562277,9.682327,-0.0045434236,0.00738848368,-0.0016605817,-18560.0,29436.5,-14973.5,
129.211,-1.2431104,-0.16083437,9.785277,-0.0005464852,-0.0032700152,-0.0005947314,-19328.0,29436.5,-13949.5,
129.333,-1.2335336,-0.22068942,9.754153,-0.008407116,0.0009933859,7.142406e-05,-19072.0,28924.5,-14973.5,
129.449,-1.2909946,-0.1895648,9.751759,-0.0049431176,0.00072692332,-0.0020602756,-19328.0,28924.5,-15485.5,
129.566,-1.190438,-0.196747384,9.744576,-0.0057424904,0.0033915452,-0.0011276575,-19328.0,28924.5,-14973.5,
129.684,-1.2000148,-0.14646916,9.694298,0.0002528876,0.004857093,0.00073758052,-19328.0,29180.5,-15485.5,
129.806,-1.2335336,-0.1823822,9.797249,-0.0005464852,-0.0026038588,-0.0011276575,-19584.0,28156.5,-15485.5,
129.923,-1.2431104,-0.15604596,9.703875,0.0010522902,0.0021924674,0.00047111884,-19840.0,28924.5,-14717.5,
130.041,-1.2191684,-0.168016976,9.653597,-0.0029446482,0.0036580116,-0.0003282698,-18816.0,29180.5,-15229.5,
130.159,-1.21438,-0.168016976,9.684721,-0.0030778944,0.0032583176,-0.0005947314,-19584.0,29436.5,-14205.5,
130.276,-1.2167742,-0.1895648,9.818796,-0.00347757336,0.00698879,0.0035354364,-19840.0,29436.5,-15485.5,
130.398,-1.2766292,-0.22308362,9.754153,-0.0025449544,-7.246435e-05,-0.0015273513,-19072.0,29436.5,-15741.5,
130.516,-1.1569192,-0.21111262,9.758942,-0.001878798,0.0029918552,-0.0024599694,-19584.0,29692.5,-14717.5,
130.633,-1.2071974,-0.1943532,9.806826,-0.0021452606,-0.0012715459,-0.002326738,-19840.0,29180.5,-13693.5,
130.749,-1.2359278,-0.191959,9.749365,-0.001878798,0.0019260049,-0.0005947314,-19328.0,28924.5,-14205.5,
130.866,-1.2455046,-0.179988,9.751759,-0.0021452606,0.0013930798,-0.003259357,-19072.0,29948.5,-15485.5,
130.988,-1.2215626,-0.15844018,9.725423,-0.0021452606,-0.000738620736,-0.0009944253,-19584.0,29180.5,-14717.5,
131.107,-1.2598698,-0.23266042,9.79246,-0.00361080468,0.0025921612,-0.001793813,-19328.0,28924.5,-14461.5,
131.224,-1.2718408,-0.179988,9.778095,-0.0021452606,0.0045906304,-0.0013941191,-19328.0,29436.5,-14717.5,
131.341,-1.2766292,-0.24223724,9.725423,0.0025178344,0.0063226336,-0.0019270442,-19584.0,28924.5,-14973.5,
131.459,-1.2478988,-0.13928655,9.744576,-0.0062754304,-0.0035364776,-0.0001950385,-19584.0,29180.5,-14461.5,
131.582,-1.2048032,-0.21111262,9.742182,-0.001878798,0.0003272295,0.003801899,-19584.0,29436.5,-13949.5,
131.698,-1.238322,-0.191959,9.725423,0.000785827636,0.003924474,-0.0016605817,-19584.0,29436.5,-14205.5,
131.814,-1.2526872,-0.235054608,9.713451,-0.002411738,0.004857093,-0.003925513,-19584.0,29436.5,-13949.5,
131.931,-1.178467,-0.1847764,9.775701,-0.002811417,0.0027253888,-0.0003282698,-19840.0,29436.5,-13693.5,
132.046,-1.2478988,-0.203929984,9.756547,-0.003344342,-0.0014047772,-0.0020602756,-19840.0,28924.5,-14205.5,
132.170,-1.238322,-0.1847764,9.699086,-0.0060089676,0.0016595423,0.00286928,-18816.0,29180.5,-14205.5,
132.284,-1.2766292,-0.168016976,9.780489,0.000785827636,-0.0032700152,0.0044680556,-19840.0,29692.5,-13949.5,
132.404,-1.2167742,-0.170411168,9.725423,0.0002528876,-0.000871852064,-0.0019270442,-20096.0,30204.5,-14205.5,
132.523,-1.2431104,-0.1847764,9.780489,0.00065259636,6.0766936e-05,0.001004043,-19840.0,29948.5,-13693.5,
132.646,-1.1928322,-0.16562277,9.691904,-0.0025449544,0.0028586238,-0.000727963636,-19584.0,29180.5,-14717.5,
132.765,-1.2071974,-0.15844018,9.742182,-0.0064086468,0.006589096,0.00020465534,-19584.0,29692.5,-14205.5,
132.882,-1.2814176,-0.27815026,9.732605,-0.0029446482,0.0011266135,-6.180722e-05,-19840.0,29180.5,-14717.5,
133.000,-1.1952264,-0.12731555,9.71824,-0.006675124,-0.0006053895,-0.0028596632,-20352.0,29692.5,-14717.5,
133.115,-1.2048032,-0.1943532,9.758942,-0.0038772672,0.001526311,0.0024695872,-19840.0,28924.5,-14461.5,
133.236,-1.2000148,-0.175199568,9.794854,-0.004276961,0.0008601546,-0.0021935068,-19840.0,29436.5,-14205.5,
